File: 2021/xrd/raw_data/asc/#8138_4_40_R12_1_8_M15_P0026_T200 _1.ASC
4,00993028 0 255,064697674923
4,06193028 -3689,90132076351 242,588509717058
4,11393028 -4302,79712508651 236,474179806672
4,16593028 -4570,63364761004 231,070918746183
4,21793028 -2368,21824401201 230,665389495022
4,26993028 812,082852649724 231,723102395128
4,32193028 7272,60420896837 238,317076117142
4,37393028 18180,2818621252 251,141297962092
4,42593028 36503,0411612227 272,884701852896
4,47793028 70380,763933886 310,600755233917
4,52993028 124445,110952349 361,245092881132
4,58193028 130264,238830883 353,260676494865
4,63393028 36858,9095352282 244,532398310449
4,68593028 11851,8531115262 211,467031665582
4,73793028 5192,64670933088 198,211982386514
4,78993028 2135,68285792766 189,909336343233
4,84193028 670,629006369178 183,810666445906
4,89393028 123,523438226857 179,296979751693
4,94593028 0 175,365748215604
4,99793028 -333,771943075222 172,495025602294
5,04993028 -392,012809797336 170,016189764401
5,10193028 -669,900903052749 167,279448060222
5,15393028 -423,601822003624 165,497370581627
5,20593028 -477,729847100054 163,24540713001
5,25793028 0 161,899895491971
5,30993028 -138,984007625939 160,873053394737
5,36193028 -108,505788268802 160,177954206726
5,41393028 -173,633687387432 159,423740386438
5,46593028 -337,411146903258 158,570324267812
5,51793028 -440,870635570263 157,890624118963
5,56993028 0 158,226099800001
5,62193028 -263,171274744414 157,589262910804
5,67393028 -426,165652198644 157,072503602805
5,72593028 -161,301129793519 157,52737506871
5,77793028 -204,619511739078 157,530274807803
5,82993028 -297,464335441762 157,461151650678
5,88193028 0 158,160959889003
5,93393028 -48,121300063016 158,637928160428
5,98593028 36,2555632756485 159,415668171877
6,03793028 155,701322407382 160,286747559462
6,08993028 198,752788949734 160,958439984722
6,14193028 984,130315309141 163,532594358274
6,19393028 2110,39238109225 166,817647209655
6,24593028 3872,71276365421 171,523805489219
6,29793028 7749,35067286818 180,981637122484
6,34993028 15363,4415466152 198,134125609003
6,40193028 29770,1052545022 228,335440508429
6,45393028 42993,269737229 256,671325797564
6,50593028 21408,784819054 219,883645471128
6,55793028 7142,92999534288 188,782272560847
6,60993028 4256,6635203034 182,926283111373
6,66193028 3064,43057481304 178,858524121395
6,71393028 2171,86999805776 174,180816797941
6,76593028 1592,0834860955 170,500262754222
6,81793028 1280,31502189734 167,6518097944
6,86993028 1480,34210998274 166,288155260832
6,92193028 1285,22913888059 163,879390107077
6,97393028 1198,25901831752 161,905692846613
7,02593028 933,979314253585 159,535515894358
7,07793028 938,828278402061 157,800250989485
7,12993028 888,865345122707 156,171771545483
7,18193028 620,929132124867 154,022952528411
7,23393028 868,94028756837 153,144754768121
7,28593028 472,643072865985 150,929874309732
7,33793028 524,413288646097 149,738219492129
7,38993028 692,939534746462 148,964509824408
7,44193028 499,639482269004 147,450308143674
7,49393028 844,507063983978 147,025334602049
7,54593028 965,138526324139 146,303176651646
7,59793028 1453,18237543981 146,289130994988
7,64993028 2193,72898942189 146,809290133362
7,70193028 3612,53477652355 148,628714070195
7,75393028 6777,39639105181 153,362720328434
7,80593028 14120,6030875209 164,566168090389
7,85793028 27639,2219652338 183,490303623003
7,90993028 37570,1848567176 195,802137220642
7,96193028 18770,1087613472 169,936923163303
8,01393028 5716,03323846674 149,174546798272
8,06593028 3097,95406800594 144,484425714193
8,11793028 1882,41795125581 142,213506529494
8,16993028 1386,07835755698 141,238960210914
8,22193028 913,219071737027 140,393566395871
8,27393028 675,062269702348 139,907283023946
8,32593028 463,654635472476 139,695773203467
8,37793028 407,822540631663 139,829461142145
8,42993028 302,969195608719 139,83942193651
8,48193028 322,195891946534 140,190940771546
8,53393028 221,620463959727 140,250551024258
8,58593028 169,159316326602 140,625002707108
8,63793028 230,777765857354 141,24383522112
8,68993028 0 141,188282649815
8,74193028 206,768100794423 142,332391244919
8,79393028 284,763144619015 143,207921201292
8,84593028 668,140201665088 144,960362170622
8,89793028 1078,47575287973 146,764117052711
8,94993028 1833,04961151527 149,589271089593
9,00193028 4034,39799917401 156,275504961208
9,05393028 9071,73213169536 170,483304031272
9,10593028 16678,9508032529 191,205671881404
9,15793028 17592,4916150596 196,579473603324
9,20993028 5103,72086933052 165,279082250034
9,26193028 2037,40507006819 156,437545766586
9,31393028 1170,88761579753 151,665810974135
9,36593028 490,004816862871 147,609890211562
9,41793028 688,416073221711 146,424304982868
9,46993028 522,836048437548 144,175701916396
9,52193028 285,935155315745 141,755217705595
9,57393028 281,698734201536 140,030008237847
9,62593028 134,072383297842 138,102600157855
9,67793028 492,228020497256 137,759295556633
9,72993028 409,865802077447 135,973022273459
9,78193028 353,555187552683 134,363875081758
9,83393028 58,7571242890681 132,33795561022
9,88593028 303,579401508297 131,579244827853
9,93793028 211,821657303688 130,209758962185
9,98993028 284,417177185676 129,226833345322
10,04193028 251,071335686829 127,972257717756
10,09393028 517,542158932374 127,596981450542
10,14593028 1048,48409386972 127,921497732807
10,19793028 1775,88649865015 128,463016233446
10,24993028 1566,89658661215 127,036123331225
10,30193028 522,045155763544 124,069888606817
10,35393028 244,381283894951 122,931039183312
10,40593028 149,551845803151 122,042910375189
10,45793028 82,6060720312526 121,385503551356
10,50993028 166,932499872206 121,063225113759
10,56193028 0 120,283688198662
10,61393028 72,2654585896344 120,202588833377
10,66593028 147,042049552136 120,183256638035
10,71793028 23,6824402175153 119,809481133972
10,76993028 124,094124163723 119,997996459148
10,82193028 102,205646361401 119,961164589836
10,87393028 222,815172851226 120,262772528029
10,92593028 292,742829298862 120,545237541048
10,97793028 516,369283043841 121,17234492756
11,02993028 1167,74549480173 122,815422683789
11,08193028 2838,03892026903 126,826906326761
11,13393028 6498,07323907374 135,233833920744
11,18593028 10928,100012116 146,083624490954
11,23793028 7774,2224668356 141,916742607168
11,28993028 2122,17451019683 128,186839441819
11,34193028 968,080379420313 125,715640187732
11,39393028 526,957499509501 125,074941887941
11,44593028 513,289579742632 125,655125349667
11,49793028 123,546962654749 125,14623933684
11,54993028 51,5343716812495 125,616354973415
11,60193028 116,188367755352 126,649903075373
11,65393028 354,344472223858 128,367246264112
11,70593028 155,318733329143 128,495560178993
11,75793028 284,508168555692 129,85099497581
11,80993028 45,0617416410896 129,92144129607
11,86193028 226,631519246597 131,560531031529
11,91393028 264,230231679672 130,532187498563
11,96593028 182,914787000867 128,662683821277
12,01793028 -59,9520097145651 126,188124560483
12,06993028 63,2498110178003 125,179790247853
12,12193028 0 123,557787068206
12,17393028 180,29644216095 122,878969370295
12,22593028 287,311731736834 122,038187437433
12,27793028 154,178263108908 120,38101069861
12,32993028 71,8319873547534 118,986441351182
12,38193028 83,9003991092031 117,92193408484
12,43393028 162,201615135791 117,171623639037
12,48593028 27,8902215548196 115,795331996747
12,53793028 159,505058920469 115,257665209717
12,58993028 134,012750051053 114,2258327419
12,64193028 187,424248465824 113,725770421276
12,69393028 61,7349126338804 112,55328965659
12,74593028 -9,09494701772928E-13 111,77952896115
12,79793028 -117,558797825674 110,843443346064
12,84993028 -85,1184973358768 110,396183533501
12,90193028 -41,9910490276297 110,086971058767
12,95393028 105,500324864195 109,966750840002
13,00593028 -58,2099030881909 109,222972288312
13,05793028 84,1617535641362 109,251596712208
13,10993028 -30,1796156366518 108,773806468976
13,16193028 -100,881993284574 108,409970700239
13,21393028 -48,571746762972 108,390887904529
13,26593028 -26,2417020793882 108,362871356952
13,31793028 -7,03146093214491 108,419500076038
13,36993028 9,09494701772928E-13 108,48164639072
13,42193028 127,532769072202 108,831019545163
13,47393028 242,915334469968 109,315017622176
13,52593028 507,671426347093 110,154754223166
13,57793028 1018,71255628055 111,58102773737
13,62993028 2860,75515826664 116,158612584825
13,68193028 6658,00546200337 125,408533199219
13,73393028 9159,47171480002 132,838394928828
13,78593028 4846,8052418989 124,310796238486
13,83793028 1506,29611430273 115,727518399207
13,88993028 578,420700290935 113,553134950896
13,94193028 406,451818266155 113,833389088063
13,99393028 269,459623992318 114,233979512384
14,04593028 273,392248522013 114,855983884919
14,09793028 123,725172701591 115,101875054561
14,14993028 117,09216347276 115,925380175456
14,20193028 28,3825474159948 116,457730365056
14,25393028 20,8617167926222 117,328346250033
14,30593028 157,557976540624 118,735033441335
14,35793028 103,919086231753 119,508441196578
14,40993028 -12,8763992936128 120,070365782694
14,46193028 145,728646945532 121,731767587269
14,51393028 42,6380254913065 121,327035272829
14,56593028 66,6224195776858 120,099443840329
14,61793028 110,298171722094 119,001072338265
14,66993028 -1,51121759021771 117,339811403547
14,72193028 34,4948046123818 116,242790897
14,77393028 28,1556782802036 115,083317920536
14,82593028 18,195952766996 113,873879375548
14,87793028 158,901965781429 113,357869076146
14,92993028 59,476605335376 112,017171387093
14,98193028 -64,6208653401536 110,566117368994
15,03393028 78,5528579669644 110,19886425993
15,08593028 2,74197676232143 108,974566995253
15,13793028 -2,11145777757156 108,240010255355
15,18993028 52,8289771872496 107,580698280449
15,24193028 1,65133917314415 106,646074704375
15,29393028 7,89019877985447 105,970372794108
15,34593028 -71,4300642068702 105,227425849869
15,39793028 -41,6680846888212 104,650692122456
15,44993028 62,6494372654142 104,483490504877
15,50193028 -16,9059836972492 103,899600189991
15,55393028 0 103,453610176498
15,60593028 76,5912632247182 103,41297715783
15,65793028 3,38156905673168 103,064239241849
15,70993028 89,5707423598415 103,12787999279
15,76193028 105,196761779948 103,086698343091
15,81393028 362,364585506041 103,680552650287
15,86593028 616,948939792305 104,338232272546
15,91793028 434,87869476232 103,987758884212
15,96993028 84,8657756012817 103,2589172608
16,02193028 -51,2115108936787 103,130225220986
16,07393028 55,3241768600028 103,654486249584
16,12593028 128,906681352158 104,193212082565
16,17793028 0 104,191698551631
16,22993028 105,275452497163 104,840192812536
16,28193028 -17,1444577687716 104,953071838348
16,33393028 -29,1035069688596 105,509301168544
16,38593028 3,71755556033349 106,146614689053
16,43793028 -8,39797597638426 106,611754387038
16,48993028 46,8436285606076 107,540586713265
16,54193028 90,5191869520977 108,322053207851
16,59393028 -0,567053372860755 108,793830512471
16,64593028 2,05791549444257 109,664918823847
16,69793028 215,775709001609 111,294297294431
16,74993028 -18,0982015257696 111,359739628787
16,80193028 2,74620486710228 112,362034911579
16,85393028 157,004823646782 113,916276728984
16,90593028 -85,7931938410902 114,028018716119
16,95793028 26,9918468552269 115,49347806661
17,00993028 67,632956183139 116,795772433075
17,06193028 25,5238634960569 117,71883395788
17,11393028 154,914777260808 119,344355751601
17,16593028 325,216372957208 118,869047195619
17,21793028 -101,668158145644 116,002084819712
17,26993028 227,512506956324 116,240455338114
17,32193028 27,8628951650699 114,382354534727
17,37393028 -4,56788240801598 113,284945471778
17,42593028 45,834149570318 112,546743116404
17,47793028 -102,776897568258 111,076590970975
17,52993028 -36,7429062191077 110,340782080478
17,58193028 82,1460931617657 109,980801179869
17,63393028 21,8371107299563 108,976147322087
17,68593028 84,7728671359773 108,410050756776
17,73793028 58,3399240933322 107,718184654303
17,78993028 16,2061545518382 106,768604943831
17,84193028 -18,2063273815938 106,230888417042
17,89393028 -42,5176637822578 105,536386932252
17,94593028 -24,0763115508398 105,05513374605
17,99793028 10,9270077930641 104,694017013532
18,04993028 5,31035129431348 104,298475575931
18,10193028 137,028569109296 104,377899377396
18,15393028 94,5603018363354 103,7931869748
18,20593028 207,590655839007 103,919842068125
18,25793028 314,894749577084 103,969914768299
18,30993028 553,065573638502 104,393356220188
18,36193028 635,36481395673 104,491734330251
18,41393028 357,850078254513 103,790922169967
18,46593028 122,167900339045 103,24494977458
18,51793028 185,392353997756 103,466861299297
18,56993028 123,468792030143 103,464052185832
18,62193028 197,413246744438 103,821987195298
18,67393028 51,2693191755516 103,65424024017
18,72593028 158,945888913879 104,309277660829
18,77793028 398,151320764887 105,163394181981
18,82993028 669,720121315109 106,18395966849
18,88193028 1466,17799629627 108,737158005408
18,93393028 1634,86675910664 110,002861323657
18,98593028 872,576381259314 108,517111624352
19,03793028 433,717235419742 107,991025087778
19,08993028 269,561554798142 108,00338859481
19,14193028 202,551933488606 108,658805073767
19,19393028 285,421587116204 109,77429059724
19,24593028 155,734153830469 109,989243519245
19,29793028 221,896105803712 110,994117072599
19,34993028 257,448740734186 112,065159612405
19,40193028 250,264188847124 112,967201026601
19,45393028 347,161302742928 114,303102172228
19,50593028 289,349448463327 115,123490897322
19,55793028 220,239865694328 115,954395920341
19,60993028 192,502085588826 116,893761732832
19,66193028 362,128869387852 118,728947658778
19,71393028 140,556584189909 119,002907243041
19,76593028 473,977118256429 120,017666511483
19,81793028 315,644287378985 118,176522415646
19,86993028 248,488055412075 116,734808195193
19,92193028 596,289323275497 117,036895630782
19,97393028 929,623455969657 117,139252361393
20,02593028 748,575031657293 115,357642218489
20,07793028 639,369614354044 113,899098063687
20,12993028 483,533400603539 112,464112009035
20,18193028 545,452209350881 111,829626101587
20,23393028 608,272199495228 111,100297317515
20,28593028 590,792470432081 110,218156681109
20,33793028 623,792963141789 109,597953024282
20,38993028 559,25118076765 108,648901455194
20,44193028 846,029113088388 108,810966189733
20,49393028 1563,39327962111 110,235357128961
20,54593028 1859,85080090057 110,193359559939
20,59793028 1068,3118499347 107,369933091428
20,64993028 581,272839736708 105,809910874653
20,70193028 466,06642662075 105,052076769014
20,75393028 509,350326794861 104,895052055128
20,80593028 534,68223048082 104,673887283284
20,85793028 560,138200914954 104,488671823044
20,90993028 697,152802425809 104,607932890068
20,96193028 1361,36481576966 106,104464465914
21,01393028 2734,99298173742 109,19891589884
21,06593028 3038,54619785256 109,873352953111
21,11793028 1778,68809511112 107,05674317589
21,16993028 895,738043220473 105,046174178382
21,22193028 774,425403723528 104,882503169529
21,27393028 428,126343053404 104,238508490328
21,32593028 621,745782261182 105,01928711112
21,37793028 462,902238811918 104,855748009968
21,42993028 438,447902417147 105,125890117872
21,48193028 1009,23388889512 107,127861639935
21,53393028 1229,58227424127 108,229299877782
21,58593028 1222,36674964365 108,952662681098
21,63793028 664,704314384351 107,966615760684
21,68993028 494,469840530552 108,077783184855
21,74193028 558,736705915114 108,994407324949
21,79393028 355,287601531629 109,104471223293
21,84593028 401,469007773366 109,924426005585
21,89793028 328,560201583431 110,542963532268
21,94993028 355,947247507175 111,478173275891
22,00193028 400,157170767709 112,490430524626
22,05393028 382,494794099188 113,448356036051
22,10593028 403,595794144186 114,559701071101
22,15793028 393,2907640127 115,518788058459
22,20993028 417,072272922407 116,68481760232
22,26193028 562,956114327286 118,392207503107
22,31393028 562,602523608669 119,54737719257
22,36593028 568,648735369808 120,132323481426
22,41793028 847,054072459782 120,027069149331
22,46993028 1179,22339684415 120,083672183896
22,52193028 1712,87666917113 120,818672599398
22,57393028 1221,61871481735 117,706408566519
22,62593028 708,824313678802 114,699015923653
22,67793028 611,877004006142 113,397710330877
22,72993028 540,474521912191 112,181606747547
22,78193028 426,893272399044 110,861002057052
22,83393028 379,743511670858 109,828512472558
22,88593028 526,015075400777 109,433774915155
22,93793028 626,450673587017 108,953273403629
22,98993028 687,05918419689 108,373804091234
23,04193028 592,606430494317 107,356813959351
23,09393028 705,356373793104 107,043799967898
23,14593028 398,433417863087 105,580706699882
23,19793028 446,67409842166 105,064125815951
23,24993028 579,787291185885 105,001794822065
23,30193028 525,212792344659 104,383233811438
23,35393028 958,980458640258 105,173580819053
23,40593028 1624,59937078603 106,456920854733
23,45793028 2055,11396098995 107,062552964744
23,50993028 1387,22988270497 105,177308772517
23,56193028 708,665983347239 103,380497206664
23,61393028 408,726018114212 102,543289921433
23,66593028 302,456750773148 102,2327341413
23,71793028 240,820960596946 102,070056145261
23,76993028 459,014624799884 102,667066481411
23,82193028 255,229890727788 102,267150442008
23,87393028 336,960426261603 102,642259409597
23,92593028 397,270108118701 103,006191204
23,97793028 385,588422727651 103,207447753154
24,02993028 209,581024936499 103,180138467753
24,08193028 179,032579089469 103,365062416773
24,13393028 208,424546324226 103,835081962084
24,18593028 179,911234414074 104,254567966623
24,23793028 310,176668315983 105,1700503642
24,28993028 304,822312069248 105,700704250746
24,34193028 304,785465424111 106,222734522254
24,39393028 172,565130769447 106,555020707383
24,44593028 273,190309581474 107,457246225685
24,49793028 194,479542401005 108,112872184509
24,54993028 216,783726896656 108,894026076848
24,60193028 166,691099055991 109,640317835631
24,65393028 312,082659670567 110,940842558266
24,70593028 436,048433440938 112,350876908359
24,75793028 823,557111991361 114,851715038839
24,80993028 800,838144812767 115,831676644512
24,86193028 388,381712472327 115,229803138767
24,91393028 249,10657990294 115,72187433459
24,96593028 204,004980211306 116,651313019442
25,01793028 275,143027465257 116,045160500764
25,06993028 370,293864549375 115,241906677761
25,12193028 291,888615603745 113,753704926899
25,17393028 434,00963620918 113,236882801287
25,22593028 763,752263623731 113,363236037429
25,27793028 490,775195159634 111,190209350583
25,32993028 423,988364533981 110,054021410631
25,38193028 219,281097554705 108,251285477585
25,43393028 226,653553909965 107,396546566479
25,48593028 292,271717244479 106,876381343616
25,53793028 251,055227592681 105,874256456416
25,58993028 326,786816529561 105,43156104658
25,64193028 379,886494675609 104,679076855265
25,69393028 305,494514033463 103,815860980473
25,74593028 258,903331676335 103,081432257718
25,79793028 283,332769609614 102,566588209711
25,84993028 363,24322506029 102,356573910373
25,90193028 266,730873767968 101,484238091598
25,95393028 329,587885330782 101,277162490992
26,00593028 333,741696922516 100,872228734382
26,05793028 300,615827788954 100,421309244394
26,10993028 298,386837353486 100,201788447076
26,16193028 427,581339388416 100,317337645003
26,21393028 344,863141039567 99,9404524367234
26,26593028 322,561447052681 99,7823080239133
26,31793028 444,659111158646 100,028513904722
26,36993028 465,784954222921 100,06962426661
26,42193028 494,883897947363 100,197270109585
26,47393028 563,306441452452 100,558050047156
26,52593028 582,677136961609 100,649050969559
26,57793028 550,701304149395 100,907717308393
26,62993028 455,840614080746 100,87783257972
26,68193028 425,065614340434 101,10390082082
26,73393028 414,794553140058 101,350497654377
26,78593028 683,47428142923 102,547478860833
26,83793028 989,253698373859 103,908677859888
26,88993028 1137,27160823863 105,007370484731
26,94193028 928,137172998811 105,088062876064
26,99393028 702,116289023262 104,980134438371
27,04593028 444,838844328248 104,777902546979
27,09793028 401,504962159952 105,343262225403
27,14993028 430,753092365592 106,145540964394
27,20193028 701,185028608831 107,866134197374
27,25393028 1020,12137397766 109,878292921761
27,30593028 1298,36077839153 111,950098551739
27,35793028 738,152682126281 110,776752357362
27,40993028 541,557772191965 110,957617008495
27,46193028 368,147782100319 111,206939434603
27,51393028 381,234072292597 112,270500178045
27,56593028 461,041848691493 113,661063533869
27,61793028 651,445161816844 114,455767022252
27,66993028 513,3785762189 112,60600578997
27,72193028 465,798670588239 111,236613170725
27,77393028 426,463251760036 109,930335895463
27,82593028 199,732996557441 107,906769722726
27,87793028 404,235605340743 107,630555258633
27,92993028 609,856114894977 107,482939200942
27,98193028 586,650842687242 106,284009869391
28,03393028 1284,15553357263 107,817351120658
28,08593028 1274,93903513174 106,694692483769
28,13793028 910,015000697264 104,512511757359
28,18993028 531,748470001437 102,534442078163
28,24193028 451,723309876455 101,536273241485
28,29393028 290,638218221666 100,387050752822
28,34593028 318,306040381058 99,7043554926308
28,39793028 463,439012427352 99,59731805166
28,44993028 683,776371120741 99,7341707054381
28,50193028 491,030790771113 98,6174221334022
28,55393028 438,230987574476 97,9654866295234
28,60593028 250,086533011689 96,98672054534
28,65793028 193,703346863617 96,5053405083284
28,70993028 189,309631241244 96,198704340188
28,76193028 189,238799599585 95,9649592084159
28,81393028 310,075229423748 96,0771252028774
28,86593028 213,403987988207 95,6747954759947
28,91793028 207,080938397276 95,5573307506913
28,96993028 212,121933817676 95,5296036358536
29,02193028 345,50851436357 95,8886665539271
29,07393028 262,168277954327 95,7063581204687
29,12593028 327,801148945428 95,9476001199837
29,17793028 539,587618076062 96,6826309376789
29,22993028 423,779147430365 96,6128154115176
29,28193028 334,596487477957 96,5925064905052
29,33393028 390,989688097091 97,1001786900165
29,38593028 318,648102029731 97,2861415844925
29,43793028 341,977923489268 97,6792527293293
29,48993028 694,096980051597 99,0364146719138
29,54193028 1172,41201568654 101,078382029493
29,59393028 1292,80364485862 102,158720580163
29,64593028 975,36314675835 101,839147635746
29,69793028 622,818738164827 101,32230256939
29,74993028 465,751912361665 101,492007733433
29,80193028 386,50803035164 101,811875680385
29,85393028 292,94270289436 102,309919208549
29,90593028 306,410089597199 103,159204160988
29,95793028 551,840134562294 104,93357972018
30,00993028 213,833360184158 104,324966536503
30,06193028 148,901422204852 104,907894823813
30,11393028 157,394422164368 105,854645976283
30,16593028 299,627406842308 107,453953059684
30,21793028 202,727002799907 107,784327914401
30,26993028 416,074702151004 107,566730555377
30,32193028 201,896576151473 105,435688002403
30,37393028 196,105442769442 104,247294415591
30,42593028 313,232120049362 103,702085001946
30,47793028 244,917880240159 102,461198380075
30,52993028 219,701808726425 101,21423746241
30,58193028 301,187936620044 100,587186060232
30,63393028 461,449309337076 100,159135194142
30,68593028 554,036092334524 99,6344680301484
30,73793028 440,878196304863 98,5283745053228
30,78993028 353,361957010014 97,338225396466
30,84193028 305,41334053538 96,3812229204237
30,89393028 173,56301221282 95,236847135064
30,94593028 157,047396300828 94,4992580708407
30,99793028 229,845806245949 94,1219580156055
31,04993028 273,285939573509 93,7094565859231
31,10193028 282,049036246962 93,1457850952569
31,15393028 259,134818110753 92,6392320536236
31,20593028 176,864321874174 92,0159370420336
31,25793028 194,431660814157 91,6577764990485
31,30993028 217,490095300692 91,3970456351333
31,36193028 296,200715684834 91,3041513909509
31,41393028 231,482479718381 90,9067235615012
31,46593028 249,892792535737 90,7664715894885
31,51793028 110,819769789201 90,2394096950262
31,56993028 209,175769630595 90,428406227026
31,62193028 112,325115223814 90,1150491844979
31,67393028 41,2279186105443 89,892141833167
31,72593028 49,1970250344739 90,0055511170951
31,77793028 61,0170552298223 90,1376637510942
31,82993028 40,6396733398369 90,1426918242505
31,88193028 56,9854350169098 90,4165290807142
31,93393028 59,5676078979714 90,6659999620816
31,98593028 117,253001861872 91,0907133087442
32,03793028 122,360330332393 91,3697982840394
32,08993028 211,101770353907 92,0837060716312
32,14193028 76,0638332793342 91,9988800616088
32,19393028 281,162228836735 93,2791039900736
32,24593028 146,869627260805 93,3082561153327
32,29793028 205,520734220873 93,9981867614339
32,34993028 167,91886081255 94,4068647783892
32,40193028 159,920294690355 94,9071206233557
32,45393028 183,577035954284 95,7266298279131
32,50593028 112,586736569897 96,0484203929891
32,55793028 88,6091805907599 96,6461584644699
32,60993028 172,621891189364 97,7838184002761
32,66193028 349,184024476678 99,2972803484126
32,71393028 577,732645007794 101,179530844761
32,76593028 484,808110817789 101,650299584014
32,81793028 348,054904505141 101,896442462623
32,86993028 292,428330726806 101,089216108346
32,92193028 184,887036597379 99,4740639053587
32,97393028 250,366428830891 98,6606917902101
33,02593028 161,810614122899 97,2135040033221
33,07793028 281,253870909111 96,7196664379347
33,12993028 220,869012263262 95,3859613588012
33,18193028 21,5361554798856 93,6189088163566
33,23393028 -22,2400318096506 92,5844633030167
33,28593028 137,970639527461 92,3572490783885
33,33793028 109,716803185445 91,532374859771
33,38993028 75,5792197401315 90,5925990423203
33,44193028 100,819406144979 89,9329415707981
33,49393028 93,0334558156273 89,2222462235011
33,54593028 137,971153158634 88,6818536189617
33,59793028 89,2682212355267 87,9262187396577
33,64993028 176,424421286906 87,6731463073201
33,70193028 160,336051686023 87,0499011923771
33,75393028 248,428517818848 86,831620291786
33,80593028 206,039469459844 86,3161709062074
33,85793028 134,155081990101 85,6475192991683
33,90993028 184,559419257495 85,5103593667641
33,96193028 242,550447835772 85,3367385339591
34,01393028 194,41391400723 84,9288293947995
34,06593028 554,312759712523 85,7814022259186
34,11793028 476,679773197898 85,381774825449
34,16993028 341,154224360672 84,8559909374504
34,22193028 90,0572404330887 84,0397767237759
34,27393028 148,466137683254 84,1789683151501
34,32593028 90,9541879004337 83,9937729340745
34,37793028 -47,3769527312488 83,5912326482075
34,42993028 143,21530616491 84,3356343899041
34,48193028 64,9570130610527 84,1654923340774
34,53393028 -9,10952450022069 84,1865936727403
34,58593028 -9,09494701772928E-13 84,4049667828989
34,63793028 37,3691798595701 84,722522429327
34,68993028 85,8282932284528 85,3291044411904
34,74193028 9,69782453653352 85,3014822757821
34,79393028 117,748894087135 86,1447497944158
34,84593028 0,43513636784337 86,1046517898926
34,89793028 86,7419512489805 86,8551868034016
34,94993028 202,038414667439 87,8706730901255
35,00193028 234,36494016384 88,5050805718454
35,05393028 419,777838656961 90,0462753674687
35,10593028 231,066697177365 89,8756929458723
35,15793028 304,198741656891 90,8672775301837
35,20993028 94,9090043829701 90,5120397248992
35,26193028 170,294119231597 91,5599211378326
35,31393028 198,365804980631 92,4421006862184
35,36593028 149,022020774228 92,9895308992656
35,41793028 269,826530540141 94,4198106441074
35,46993028 31,9965109478453 93,415667130451
35,52193028 197,823544157171 93,2345698881168
35,57393028 262,008020522963 92,5318077340462
35,62593028 340,062780980149 91,8820055774097
35,67793028 309,295857615032 90,7359177605414
35,72993028 227,61042108076 89,4193221087921
35,78193028 197,932284515519 88,3729576038588
35,83393028 285,484684816785 88,0019530686042
35,88593028 170,886416201145 86,6054952998475
35,93793028 211,23743901843 86,0450604147432
35,98993028 239,044376637604 85,3819259090845
36,04193028 124,513074467087 84,1939089986231
36,09393028 23,2355880850846 83,1382485351448
36,14593028 48,1815040627635 82,5638819399358
36,19793028 138,882080469079 82,3918451090798
36,24993028 188,250437437462 82,0916023644542
36,30193028 179,102642761519 81,5217998559564
36,35393028 88,6712156254644 80,6676013054284
36,40593028 215,439520700007 80,6433807226254
36,45793028 121,1730035074 80,0331578468295
36,50993028 88,0251438050618 79,586906534775
36,56193028 107,178301112135 79,328225478519
36,61393028 155,206629255053 79,2375446327451
36,66593028 93,9383428682904 78,8386629895223
36,71793028 191,342113546695 78,9751259463252
36,76993028 29,7764766039304 78,3319107882837
36,82193028 53,8220823320703 78,3288617371126
36,87393028 170,322674980203 78,6400822310887
36,92593028 77,5600898017178 78,30986016727
36,97793028 213,901706560288 78,8631998664074
37,02993028 295,06437108859 79,1543730603275
37,08193028 131,425653482041 78,818067427153
37,13393028 76,1096613923446 78,7480528556592
37,18593028 87,7283207306018 78,9422289228954
37,23793028 44,8782817939223 79,0185949183368
37,28993028 250,147509157773 80,1065519753293
37,34193028 143,180590756655 80,0064249318949
37,39393028 193,649364831885 80,472307244385
37,44593028 227,209388954135 80,9961015159348
37,49793028 360,486152000486 81,9727724303649
37,54993028 302,424913921452 82,2514853420619
37,60193028 320,238654244123 82,905805723811
37,65393028 252,927035101727 83,0655892644271
37,70593028 208,33556283321 83,3834450947642
37,75793028 331,286769780829 84,644390231686
37,80993028 358,47292936355 85,3995917794457
37,86193028 254,889426829201 85,4873750151806
37,91393028 233,771293786874 86,1152447085061
37,96593028 151,455046597692 86,3641327703801
38,01793028 0 86,2401897710123
38,06993028 188,139016006501 88,1796093585833
38,12193028 150,921014982111 87,2617947874713
38,17393028 126,096046961983 86,2957845205319
38,22593028 52,7720535360531 85,0991751149612
38,27793028 219,498894846754 85,1554806457379
38,32993028 92,7668244731531 83,8171520470965
38,38193028 245,668302216821 83,8670825250844
38,43393028 137,069070420283 82,6485142860914
38,48593028 152,541094863237 82,0795549877057
38,53793028 72,6276316785634 81,0564429009135
38,58993028 180,726229230796 80,9931500509906
38,64193028 217,826126049123 80,4506133701133
38,69393028 339,531425735962 80,6019491875696
38,74593028 200,252637726683 79,4098464516812
38,79793028 161,532488628043 78,8337102321612
38,84993028 28,9757240622957 77,8743453250316
38,90193028 79,6198588319212 77,8066499419301
38,95393028 0 77,1296545141486
39,00593028 50,5691428698628 77,1361747268354
39,05793028 41,8485930529778 76,8689857524909
39,10993028 79,6064219599557 76,9011852909751
39,16193028 5,02223155038064 76,4962901723386
39,21393028 21,0945701907494 76,4912996480822
39,26593028 77,2579564905245 76,6378007705093
39,31793028 -51,9700017310079 76,1707065492498
39,36993028 55,9699863647384 76,5265876108877
39,42193028 59,0284916352352 76,583903124584
39,47393028 -15,9435554043007 76,3996542219466
39,52593028 108,609088528616 76,9567300929157
39,57793028 57,4056626531847 76,9308132329402
39,62993028 -20,7589362492213 76,9239519278682
39,68193028 48,5646166754286 77,3812260181564
39,73393028 76,8321035090989 77,7345816336239
39,78593028 105,207929899466 78,1619113192039
39,83793028 59,1824621088249 78,3347978969791
39,88993028 114,046506011119 79,1667286926489
39,94193028 90,0150976163372 79,3930182716079
39,96793028 1,7845742364093 79,2678691170564