File: 2021/xrd/raw_data/asc/#8139_4_40_R12_1_8_M15_P0026_T200 _1.ASC
4,00993028 0 261,335034008072
4,06193028 -3697,27168450609 246,028399736635
4,11393028 -4058,08656562374 237,381322925621
4,16593028 -4302,57198552373 228,966064167209
4,21793028 -3322,9752688634 222,999729225082
4,26993028 -2063,725351741 217,569254715974
4,32193028 0 213,611600730311
4,37393028 1859,66629758339 214,190147283578
4,42593028 5644,96561953351 218,041256451629
4,47793028 12745,3629179219 226,97969672794
4,52993028 25342,7436802813 243,020018928043
4,58193028 42638,3682067851 262,581016061179
4,63393028 49499,9939266117 265,808946821772
4,68593028 37597,6487933471 246,145143109292
4,73793028 18501,2718081188 218,444820231233
4,78993028 7508,91236019394 201,579597156975
4,84193028 3007,60344862913 193,432068341132
4,89393028 1857,9920148676 190,075346602621
4,94593028 1300,35834294379 187,429688248982
4,99793028 509,920279094982 184,615256438394
5,04993028 279,122758406946 182,720306376226
5,10193028 365,16906685834 181,310613742399
5,15393028 109,125719955318 179,515291717686
5,20593028 72,5871734034845 178,10390953977
5,25793028 0 176,75737150268
5,30993028 -116,656581925716 175,453279156898
5,36193028 -13,4290620760439 174,545056733164
5,41393028 -139,90633329294 173,383591633386
5,46593028 -258,437668247287 172,317704525757
5,51793028 -329,83735794446 171,38065206555
5,56993028 0 171,128170286637
5,62193028 -265,54480777244 170,284761737361
5,67393028 -106,705268459515 170,270930202897
5,72593028 -233,778076145689 169,860244367285
5,77793028 -19,9624325477998 170,091890507193
5,82993028 -93,5085796530002 169,834729027406
5,88193028 0 169,957560905129
5,93393028 66,3603363541915 170,579688699711
5,98593028 -102,336905116154 170,948271191877
6,03793028 11,661468134138 171,776237233346
6,08993028 -32,5812242567663 172,454779387015
6,14193028 145,315167848195 173,573191336854
6,19393028 311,336223459166 174,780631847257
6,24593028 841,179696197072 176,791566937431
6,29793028 1942,78395982963 180,063553822909
6,34993028 4107,91286839835 185,921166672278
6,40193028 7870,72093521195 195,432548797314
6,45393028 13150,1584392997 208,624829323693
6,50593028 16391,0099014189 217,939207304533
6,55793028 13827,8238162491 214,874897818087
6,60993028 7845,46592606627 203,041449292259
6,66193028 3834,59806389325 192,048625871377
6,71393028 2589,66387190621 186,44314928084
6,76593028 2138,87257013864 182,962184481607
6,81793028 2047,29300141143 180,484956495918
6,86993028 1852,2546132781 177,863029895709
6,92193028 1932,20226164123 175,905364147907
6,97393028 2241,0742645759 174,62438983002
7,02593028 1985,368460522 172,043647925895
7,07793028 2262,09573654241 170,754576349304
7,12993028 1858,18623544471 168,156182037077
7,18193028 1909,56275950302 166,532631319471
7,23393028 1847,46091832163 164,708397355651
7,28593028 1768,37792719414 163,007327900514
7,33793028 1389,42210583674 160,808747745668
7,38993028 1567,0896948524 159,732417267688
7,44193028 1533,95999967199 158,408126801366
7,49393028 1347,58311167186 156,819713102782
7,54593028 1523,90911852269 156,086470138549
7,59793028 1265,04195055652 154,478822130894
7,64993028 1247,87784984215 153,52080122981
7,70193028 1632,7251268106 153,368316656654
7,75393028 2577,32106112346 154,168233553291
7,80593028 4301,81802253999 156,258270248734
7,85793028 7478,57527758497 160,661875712483
7,90993028 11565,3050631136 166,333117302271
7,96193028 12747,5035068493 167,657259324852
8,01393028 10159,5741973498 163,533983336868
8,06593028 5056,53861710109 155,302625110022
8,11793028 2108,10575885472 150,160129285606
8,16993028 1383,23963484182 148,731648277791
8,22193028 923,315210269317 147,850386642949
8,27393028 651,282154310715 147,384888518913
8,32593028 628,014238754791 147,352326509538
8,37793028 567,294930114562 147,429030998628
8,42993028 316,959267741568 147,090124637287
8,48193028 395,910115284691 147,464172179393
8,53393028 374,23716123009 147,785191540597
8,58593028 317,212945442394 148,039986559745
8,63793028 152,150393108705 148,010358449074
8,68993028 221,141877929937 148,692460478805
8,74193028 107,757620900262 148,950297647784
8,79393028 306,71601943333 150,038857187075
8,84593028 282,716818933695 150,680896487377
8,89793028 450,117546892598 151,690740759127
8,94993028 488,863814611468 152,491529088617
9,00193028 1215,61435228417 155,172098656028
9,05393028 3112,1115577722 161,157051221539
9,10593028 6008,79210506475 170,230877681025
9,15793028 8208,13465123193 177,643908279052
9,20993028 7398,82401677738 177,157695563268
9,26193028 4368,38675633662 169,125781290579
9,31393028 1924,82322800501 159,506426307784
9,36593028 620,860527081568 153,46093914549
9,41793028 359,793239353621 150,769736402443
9,46993028 34,2127637333706 147,79798705106
9,52193028 138,812063052203 146,296139867937
9,57393028 -114,027433127249 143,688613806065
9,62593028 1,81898940354586E-12 142,309426790341
9,67793028 -11,5754680922546 140,710585671496
9,72993028 -23,0831741916372 139,166117648937
9,78193028 33,4471247438196 137,779622925823
9,83393028 42,6787272420952 136,431048275474
9,88593028 77,0871474757732 135,275873387322
9,93793028 46,5531985062062 133,902679958635
9,98993028 -42,2495707083126 132,361811713584
10,04193028 115,9391733345 131,627271821553
10,09393028 -30,0620151467938 130,23702697729
10,14593028 429,541655068961 130,187574530989
10,19793028 920,998310929614 130,24567436274
10,24993028 1208,90681062164 129,834299801743
10,30193028 834,891293995172 128,256452233205
10,35393028 600,122518560025 127,033562348906
10,40593028 267,460849486137 125,65969015241
10,45793028 80,7416424608218 124,69421272952
10,50993028 90,6511301347455 124,149586201037
10,56193028 105,675826429971 123,678742510635
10,61393028 141,034737967419 123,310645385244
10,66593028 139,548679823187 122,967739044898
10,71793028 107,679779778642 122,567654997722
10,76993028 246,518826794168 122,613964650257
10,82193028 211,619778566997 122,367015190572
10,87393028 0 121,718452102979
10,92593028 130,521654600805 122,263779054268
10,97793028 122,273143171111 122,374069544313
11,02993028 437,155368570851 123,386464476931
11,08193028 729,745024021049 124,24089674592
11,13393028 2131,49021370138 127,995844475955
11,18593028 3307,70505631284 131,445634944638
11,23793028 3454,07254240658 132,673210275544
11,28993028 2517,42674131005 131,320433091444
11,34193028 1178,02138270782 128,555998613977
11,39393028 289,993648138103 126,632377449426
11,44593028 16,581785113307 126,636150429288
11,49793028 38,9321318700913 127,459003849551
11,54993028 -128,261381005328 127,716519527524
11,60193028 92,6389385815037 129,217358384898
11,65393028 -78,1903568809084 129,533946898235
11,70593028 -25,7800984357036 130,609329443731
11,75793028 -151,245700237378 131,079270783555
11,80993028 184,535226878232 133,283096265564
11,86193028 40,3554586812752 133,763187808741
11,91393028 -179,49132091912 131,811071128042
11,96593028 -104,294088423992 130,533848199052
12,01793028 186,044118233986 130,058034004144
12,06993028 34,6837331271799 128,052304468777
12,12193028 0 126,5401231085
12,17393028 -79,3949424153761 124,895788545664
12,22593028 48,2667913087153 124,043028434007
12,27793028 -117,312746140948 122,330469110231
12,32993028 -15,5432894578935 121,394825507617
12,38193028 -12,6118470950478 120,263692418994
12,43393028 0 119,243575459423
12,48593028 -71,1985386639681 118,074010091353
12,53793028 -73,1453501897558 117,02997664122
12,58993028 -127,187214081952 116,058083463884
12,64193028 -139,257999509848 115,205544137491
12,69393028 -107,045126087976 114,466180741199
12,74593028 0 114,086786499327
12,79793028 -137,934121061076 113,064998021127
12,84993028 -69,8801633965595 112,685948698576
12,90193028 51,0745116286143 112,433102815317
12,95393028 18,9235124713723 111,934904747145
13,00593028 55,607895391835 111,621398792792
13,05793028 0 111,154345409545
13,10993028 21,6042160609013 110,942419993536
13,16193028 -121,649546019721 110,461158306302
13,21393028 -185,497114076456 110,200651358159
13,26593028 34,9823523745117 110,639110446643
13,31793028 -78,7474212414436 110,391057231821
13,36993028 29,0266573856916 110,70310816644
13,42193028 142,997332384417 111,033385253328
13,47393028 89,1762527255169 111,152746613545
13,52593028 77,557610525836 111,274261529006
13,57793028 237,165128906154 111,926378751444
13,62993028 1116,61540908207 114,235026836256
13,68193028 2384,89490497273 117,848489180128
13,73393028 3437,02625308797 121,073115317368
13,78593028 3163,91894878861 121,517846047742
13,83793028 1879,63885168621 118,918670474658
13,88993028 530,502447286071 115,68562725454
13,94193028 305,671415954353 115,71591065306
13,99393028 46,405594024216 115,511895344505
14,04593028 63,5153342451622 116,408943076106
14,09793028 154,398171310575 117,452354234695
14,14993028 -97,6071113982243 117,439884176882
14,20193028 33,4492679798223 118,724301413118
14,25393028 90,4271839941866 119,829483697192
14,30593028 86,0686901715389 120,791164446923
14,35793028 137,298612186451 121,959559601531
14,40993028 -96,05916512561 122,046843960244
14,46193028 -46,1203677823441 123,295414832197
14,51393028 58,7704127572815 123,726243686576
14,56593028 -145,60919839541 121,557651379971
14,61793028 111,107529371707 121,29338439298
14,66993028 -16,4206274808885 119,530516386031
14,72193028 -86,7025470533436 118,015387155047
14,77393028 -70,6708187031372 116,896731311794
14,82593028 -14,7425235180399 115,982640911058
14,87793028 -198,451787900393 114,238881307627
14,92993028 85,8618092202305 114,231716700768
14,98193028 2,76569160244617 112,957566451389
15,03393028 58,2398488878798 112,174771074906
15,08593028 -67,5561732448905 110,900787138844
15,13793028 8,20973860066897 110,337717588003
15,18993028 232,737575140944 110,284796611881
15,24193028 104,295725329058 108,953357103733
15,29393028 -10,8278153821147 107,883541594875
15,34593028 10,8495749097283 107,379722386253
15,39793028 58,9351284471913 106,961229269363
15,44993028 144,809015208322 106,634129286108
15,50193028 55,0680779266695 105,972562455503
15,55393028 0 105,411709904881
15,60593028 131,70332408662 105,427219470311
15,65793028 121,60667202039 105,150568767045
15,70993028 65,14569659668 104,879082291535
15,76193028 211,264822151611 105,107383673617
15,81393028 357,640044193336 105,3849316628
15,86593028 354,413046522356 105,363741242378
15,91793028 466,048091413628 105,698054278436
15,96993028 229,65461273594 105,212921911081
16,02193028 114,152191002748 105,090881176722
16,07393028 120,769499799841 105,330805693761
16,12593028 93,5655092562492 105,600270030079
16,17793028 106,979969723387 105,91851843715
16,22993028 74,9259507385677 106,220455479773
16,28193028 81,2006503978091 106,649215585789
16,33393028 38,8206378594386 107,019279173819
16,38593028 107,894776628602 107,670781089761
16,43793028 117,794497788748 108,323996355458
16,48993028 297,07332813183 109,474933984693
16,54193028 232,348657679086 109,942080628832
16,59393028 377,156813977375 111,126336420693
16,64593028 161,052576853536 111,24457966823
16,69793028 173,401708585944 112,133031434217
16,74993028 112,846589030098 112,718243136672
16,80193028 0 113,22681068838
16,85393028 79,6363911848075 114,469597039253
16,90593028 23,630992720161 115,261634311044
16,95793028 22,7938256620937 116,313827276801
17,00993028 122,219445203956 117,798506456536
17,06193028 90,8932712496908 118,818139703457
17,11393028 252,879213449688 120,57703788947
17,16593028 72,7791407051527 118,651264548682
17,21793028 151,65904423468 117,788478477032
17,26993028 193,95183190071 116,831458755438
17,32193028 108,842808185253 115,458857495578
17,37393028 78,2325577251468 114,224907451933
17,42593028 136,062720636204 113,50330830487
17,47793028 74,5446657499715 112,296075102246
17,52993028 104,653986262847 111,541482324061
17,58193028 56,7369643174252 110,392903649806
17,63393028 68,3274680045852 109,745333350542
17,68593028 122,886172507169 109,12995750714
17,73793028 65,2614687478599 108,215979560396
17,78993028 79,5405716282912 107,58222495777
17,84193028 193,836396230328 107,303924651885
17,89393028 10,100010584586 106,134453403372
17,94593028 256,397280656699 106,361668366766
17,99793028 81,5821929829626 105,364293384712
18,04993028 132,502183824843 105,098408128429
18,10193028 109,097362610137 104,624212358561
18,15393028 143,681044475889 104,413456377368
18,20593028 100,490966476421 104,017423761515
18,25793028 135,364367417569 103,936868902601
18,30993028 371,652694338759 104,305712496529
18,36193028 355,772783499 104,196235309281
18,41393028 339,165972808549 104,087363583038
18,46593028 109,475686610716 103,535194954604
18,51793028 62,2599861248191 103,487238177452
18,56993028 145,606060510143 103,80313294221
18,62193028 49,3729157594953 103,694321201711
18,67393028 218,889250292602 104,423049900666
18,72593028 224,480285173105 104,609909690931
18,77793028 331,203382733607 105,310928765298
18,82993028 522,354700591288 106,063469102854
18,88193028 949,726688978032 107,673535264607
18,93393028 1113,6064811498 108,803554195843
18,98593028 706,334969364965 108,220997441941
19,03793028 288,984096057243 107,707963250048
19,08993028 129,435466502752 107,873063942928
19,14193028 23,488241273265 108,19589150874
19,19393028 163,442051622571 109,399593452483
19,24593028 257,900403820221 110,447313060857
19,29793028 163,45684514075 110,959592913985
19,34993028 316,700881486876 112,436276805914
19,40193028 345,055313099147 113,318172640206
19,45393028 303,217279148491 114,26362301883
19,50593028 359,504969689689 115,474560144958
19,55793028 379,103404114493 116,542636904676
19,60993028 195,276873823408 116,976507163415
19,66193028 299,97753534807 118,489093122938
19,71393028 45,8994776431937 118,588672052388
19,76593028 75,8429351726118 118,338457113762
19,81793028 489,819000920457 118,850948955115
19,86993028 442,490588349056 117,482561119748
19,92193028 341,185023796495 115,878302764714
19,97393028 355,793810148627 114,892233729406
20,02593028 546,976823138778 114,638128528519
20,07793028 364,388456357726 112,891611628695
20,12993028 415,071548806215 112,138723541307
20,18193028 301,733145667038 110,8439523744
20,23393028 353,062032469034 110,157008661464
20,28593028 424,964179300366 109,489425469766
20,33793028 244,661382599212 108,159081327477
20,38993028 413,245658170377 108,016875033899
20,44193028 724,195119101097 108,199859176288
20,49393028 837,069876163705 107,934389168033
20,54593028 936,798420967092 107,509932015778
20,59793028 782,254909744492 106,552664252698
20,64993028 608,597728023827 105,55493768794
20,70193028 443,047825258126 104,78549608317
20,75393028 387,709204593785 104,29959726928
20,80593028 304,823170336348 103,756563905816
20,85793028 362,494548148251 103,64169477174
20,90993028 528,590317201267 103,886991763424
20,96193028 925,630006874092 104,716184079879
21,01393028 1263,70264937006 105,44454979798
21,06593028 1425,1344170042 105,794066817559
21,11793028 941,777055672375 104,69868645346
21,16993028 574,755282242286 103,884151271869
21,22193028 409,234459806561 103,67429332033
21,27393028 246,984194915323 103,450955490034
21,32593028 252,879034871712 103,670489371605
21,37793028 369,267701819567 104,325189802323
21,42993028 395,395034377641 104,699170761792
21,48193028 369,927440450683 104,993340905309
21,53393028 624,461156062772 106,149531479138
21,58593028 604,085256312472 106,682459624126
21,63793028 460,381354107955 106,836138325258
21,68993028 189,690792063956 106,714763715634
21,74193028 254,838715121554 107,606904736195
21,79393028 237,167566756941 108,233372786563
21,84593028 209,963699925819 108,854442070164
21,89793028 224,889482545982 109,721452464595
21,94993028 248,070904358158 110,573928048018
22,00193028 347,185664653013 111,876824314749
22,05393028 175,716153603481 112,128880379953
22,10593028 181,045531136774 113,168289363187
22,15793028 294,947334584266 114,614577991792
22,20993028 205,905137859191 115,310128250556
22,26193028 164,724088752424 116,201339381686
22,31393028 271,382890469676 117,760645288184
22,36593028 243,460378045238 118,172013219306
22,41793028 504,865748648458 118,042440113795
22,46993028 871,778195116009 118,305931532231
22,52193028 750,583694137925 116,608314080053
22,57393028 592,023285065294 114,844947820546
22,62593028 459,333173566165 113,333404522492
22,67793028 309,033986389585 111,777859410262
22,72993028 162,1611294565 110,190962464372
22,78193028 163,737566444923 109,374724288564
22,83393028 187,784823295467 108,642224125781
22,88593028 234,519950506613 107,919284912161
22,93793028 242,571676101523 107,125242498899
22,98993028 305,48912439026 106,718183807518
23,04193028 340,106165331226 106,034625928915
23,09393028 139,978631458132 104,804180700619
23,14593028 14,6332247643259 103,774005239219
23,19793028 246,635745051341 104,020366039197
23,24993028 263,618161864742 103,475595267879
23,30193028 405,52564962582 103,545260349462
23,35393028 638,606944562599 103,651427779677
23,40593028 912,430911341249 104,07718994468
23,45793028 1078,03662043291 104,088655295369
23,50993028 775,491423533675 103,159897116834
23,56193028 488,068290836228 102,262940869659
23,61393028 322,637075912059 101,754576716694
23,66593028 191,729166591318 101,373206954138
23,71793028 122,402190455689 101,195283050187
23,76993028 86,4610332651746 101,18191806086
23,82193028 57,3906378804313 101,190867669566
23,87393028 212,313996577046 101,753792962605
23,92593028 87,5889155801424 101,580194287585
23,97793028 39,4138072185324 101,725146998392
24,02993028 58,0077255353472 102,114583491785
24,08193028 135,624704143792 102,725220985102
24,13393028 164,562889344158 103,164712158446
24,18593028 171,328990799452 103,665904799916
24,23793028 40,8671215625282 103,801433272073
24,28993028 118,947719652838 104,536943092624
24,34193028 76,2974341302006 105,076595854335
24,39393028 21,4397122965365 105,373674520021
24,44593028 -1,91082254274806 106,067055964814
24,49793028 231,357676899856 107,706657730673
24,54993028 67,0517776884471 107,824437705806
24,60193028 125,056031961574 108,901665916943
24,65393028 66,9676315860743 109,49592886635
24,70593028 202,918190905342 110,938496232936
24,75793028 376,9091422873 112,539163396244
24,80993028 455,907771381932 113,946329340394
24,86193028 134,178881011676 113,630232011887
24,91393028 224,649709174997 115,096086218522
24,96593028 158,419706286893 115,902016040453
25,01793028 77,8361742572897 114,675678632444
25,06993028 246,723057576606 114,231170903385
25,12193028 255,435417148758 113,106971011188
25,17393028 108,49114172837 111,390795109692
25,22593028 303,712107569133 111,074525883466
25,27793028 60,2812515560836 109,100161321109
25,32993028 270,497582588268 109,027607043451
25,38193028 196,861319007331 107,875932579581
25,43393028 -28,2982769524297 106,078419236128
25,48593028 -30,1162513695481 105,333271785273
25,53793028 211,899936386883 105,445600132873
25,58993028 199,956393156252 104,558677593286
25,64193028 210,737876803702 103,809980166499
25,69393028 173,030817783354 103,068101548182
25,74593028 138,606409792214 102,352408680357
25,79793028 -8,79045587160726 101,322145631761
25,84993028 143,078395882244 101,33280827285
25,90193028 120,647692384313 100,766274092533
25,95393028 223,794132854231 100,622039872703
26,00593028 184,668331838135 100,137811165628
26,05793028 131,81292925694 99,7664344397176
26,10993028 219,684980069084 99,7347424026199
26,16193028 125,780008884502 99,2756540742251
26,21393028 256,116274845414 99,4705453151452
26,26593028 239,111012301675 99,3273552635671
26,31793028 334,428540703258 99,5286510294253
26,36993028 323,295060886071 99,5049496271511
26,42193028 483,047751270282 100,009547905647
26,47393028 323,165945619035 99,6991112742415
26,52593028 305,663872059445 99,82768115648
26,57793028 330,229998139501 100,098980902861
26,62993028 274,71659331919 100,24006336682
26,68193028 418,094185921464 100,916227893347
26,73393028 289,414366550793 100,847846184782
26,78593028 399,090290756039 101,677853216157
26,83793028 449,978128837931 102,32948218107
26,88993028 568,746461762093 103,274856126073
26,94193028 668,065476959116 104,219214202624
26,99393028 445,90407178544 104,024988327751
27,04593028 390,918927076159 104,606363823584
27,09793028 500,187419207216 105,679289463778
27,14993028 459,945701364419 106,302747328553
27,20193028 462,026018985898 106,950099948173
27,25393028 567,825336195996 108,230251277641
27,30593028 462,383150117201 108,822390910055
27,35793028 557,995472165622 110,087981106677
27,40993028 454,433376606032 110,673727320466
27,46193028 337,276666056988 111,144957993552
27,51393028 304,274309514263 112,028996357418
27,56593028 350,739053214935 113,281346540671
27,61793028 429,375788006605 113,607706220865
27,66993028 390,924962257648 112,22158994135
27,72193028 323,790125036806 110,768908309544
27,77393028 433,916470324291 110,130835935679
27,82593028 539,125177545151 109,480387100396
27,87793028 503,511285774505 108,233321943806
27,92993028 366,940557580003 106,728845869082
27,98193028 646,746080759084 106,690181538142
28,03393028 940,284680104126 106,736568915643
28,08593028 673,762957425211 104,885436474685
28,13793028 676,600399950848 104,065412870965
28,18993028 526,074964394377 102,822360173304
28,24193028 448,165751929057 101,866496137186
28,29393028 228,911735536337 100,451834803569
28,34593028 326,307783644857 100,189643168573
28,39793028 408,390706368053 99,7376906145491
28,44993028 511,513981474854 99,5110641362217
28,50193028 369,272090867672 98,5496436350795
28,55393028 358,348085197663 98,1682337121996
28,60593028 310,820327854649 97,6120017601491
28,65793028 354,207596175365 97,3616945655199
28,70993028 344,718010300266 97,0165719618856
28,76193028 305,413291446654 96,6804545539114
28,81393028 446,993741906868 96,8716598961959
28,86593028 304,503380322758 96,3629277857023
28,91793028 301,348341200218 96,2744404610824
28,96993028 331,01344777586 96,3152330849271
29,02193028 432,606841703351 96,6034304260196
29,07393028 340,753815394006 96,431958902845
29,12593028 454,724568106513 96,854700629691
29,17793028 597,464983131182 97,3861765742922
29,22993028 394,501449060021 97,0626362406368
29,28193028 390,430238260077 97,3953610193979
29,33393028 533,798139409003 98,1061947750913
29,38593028 324,21387186358 97,8030717133817
29,43793028 417,650204575339 98,5354543907067
29,48993028 581,783955572471 99,4481903755888
29,54193028 753,253605752492 100,515311141288
29,59393028 701,886560911695 101,03416099266
29,64593028 548,563446685673 101,137220562608
29,69793028 449,101281095541 101,45966487449
29,74993028 456,98204286333 102,225534528483
29,80193028 462,169351373574 103,053720657642
29,85393028 248,098488423118 102,825767960642
29,90593028 347,17172866056 104,087288911056
29,95793028 217,889378401588 104,374364805924
30,00993028 393,599946801665 105,979587808521
30,06193028 353,46552587414 106,703153303505
30,11393028 276,118960646597 107,345823712514
30,16593028 237,094019817981 108,111956847708
30,21793028 373,613522086725 109,542214464481
30,26993028 303,001868434648 108,026597015598
30,32193028 236,695647759798 106,58127685108
30,37393028 243,129478256472 105,48723664924
30,42593028 351,280657727403 104,859397545349
30,47793028 123,262219843424 102,816708506807
30,52993028 312,971288905214 102,66133686059
30,58193028 447,311732674589 102,20819993647
30,63393028 393,741274914934 101,13506274123
30,68593028 333,542964234686 99,9376912514539
30,73793028 299,823987128399 99,1157242103638
30,78993028 340,326489197411 98,2600893308474
30,84193028 210,388021399541 97,0959651752906
30,89393028 225,02963310476 96,4930224040549
30,94593028 132,154304166318 95,4948038873507
30,99793028 299,958219771223 95,4456705211781
31,04993028 214,57655235833 94,6547301924319
31,10193028 221,556450084202 94,099774206774
31,15393028 264,611840870096 93,7573273343334
31,20593028 245,765968019858 93,3539380398266
31,25793028 259,611545880063 93,0191787593654
31,30993028 366,794534657576 92,9666552458917
31,36193028 263,493814155621 92,3887624971365
31,41393028 225,178447290166 92,0585486022466
31,46593028 172,915446929343 91,7570713424472
31,51793028 73,3609522063698 91,353725528275
31,56993028 236,326646966476 91,7303488257483
31,62193028 151,243768039267 91,4612994379106
31,67393028 175,393494208951 91,5743492484324
31,72593028 151,254502767755 91,5537998288351
31,77793028 181,878211729598 91,7197953032407
31,82993028 260,999322725528 92,1289350369776
31,88193028 250,860272814398 92,3020874251754
31,93393028 241,352834930856 92,5601275044122
31,98593028 283,4311735761 93,0739041237894
32,03793028 224,964406295268 93,1932154738077
32,08993028 245,425819149464 93,6616428299032
32,14193028 263,373727599967 94,0796108283625
32,19393028 252,368618448662 94,5414528932491
32,24593028 101,730916029132 94,4757545975744
32,29793028 159,683883239196 95,2810089553189
32,34993028 146,261746164693 95,7727053092378
32,40193028 113,709442245628 96,3418770678319
32,45393028 245,672834306353 97,4850895613319
32,50593028 270,885579767528 98,3586643889444
32,55793028 193,467044903638 98,7033903729882
32,60993028 340,075482001245 100,138630344361
32,66193028 324,060535308371 100,900752069241
32,71393028 344,895530952755 101,84896123864
32,76593028 376,284092507888 102,902188226023
32,81793028 238,442621495897 103,157358313031
32,86993028 121,03846044543 102,071325382496
32,92193028 337,078147489294 101,986431891338
32,97393028 210,213814974331 100,316327875434
33,02593028 273,924756600705 99,5269902643586
33,07793028 403,286166787955 99,027812972316
33,12993028 149,353349281636 96,9253013967679
33,18193028 190,108700900254 96,2620239820349
33,23393028 205,641816705403 95,3306534639434
33,28593028 40,2566383566937 93,9190051669353
33,33793028 205,168962934279 93,7393109288621
33,38993028 131,082235447155 92,6369293795941
33,44193028 227,941934842487 92,1639892407852
33,49393028 64,0598923796606 90,873218782494
33,54593028 175,879644294476 90,7166610588073
33,59793028 144,368350058238 89,9249382899934
33,64993028 257,396261210611 89,7947443966107
33,70193028 214,831539782292 89,1088566064249
33,75393028 239,549071607484 88,6836405808237
33,80593028 222,253375956699 88,1960256768664
33,85793028 120,688700951403 87,4926201771669
33,90993028 231,560235624928 87,509654870765
33,96193028 244,828396750287 87,2604781000332
34,01393028 345,761036435244 87,2851311165123
34,06593028 235,199093067707 86,7479574350528
34,11793028 224,351919402509 86,5587099588102
34,16993028 159,032732551265 86,2686067689015
34,22193028 170,324205928472 86,2379745369417
34,27393028 0 85,6925531535173
34,32593028 103,587040126949 86,1036625755129
34,37793028 139,831093374573 86,3231332212613
34,42993028 139,814011022994 86,4636719179555
34,48193028 94,7785230072532 86,4409671794058
34,53393028 69,9937541144272 86,6403106174378
34,58593028 33,0983250923236 86,78266534599
34,63793028 136,022312290799 87,4442899580084
34,68993028 178,764257145383 87,9227501126158
34,74193028 -29,7705016825548 87,5962105450991
34,79393028 104,658948889191 88,5271291503279
34,84593028 97,1617110248399 89,023546037059
34,89793028 228,315837123308 89,9994043134346
34,94993028 153,834684544653 90,258705186962
35,00193028 230,830517999129 91,1895687792013
35,05393028 177,029319213132 91,6279988877419
35,10593028 87,1810584741661 91,8457167628809
35,15793028 151,343870297344 92,8007661517462
35,20993028 182,179607739024 93,7002599559723
35,26193028 130,830750146392 94,2353316241687
35,31393028 102,558698364289 94,8818968320122
35,36593028 75,2183076751407 95,5767386020002
35,41793028 120,045226863777 96,6410754513835
35,46993028 197,61953032757 97,3267953277292
35,52193028 176,06971407099 96,1745064507051
35,57393028 199,761162246071 95,2655757354271
35,62593028 144,49769660319 93,9799693257996
35,67793028 244,686545763981 93,4968734909317
35,72993028 153,140966136642 92,1229385810224
35,78193028 42,4402633436775 90,7679537918595
35,83393028 -9,09494701772928E-13 89,754909158744
35,88593028 203,889738597172 89,8545974076337
35,93793028 211,694423304187 89,1868492584782
35,98993028 64,4252723085838 87,7422723765954
36,04193028 44,5156578998558 86,9631151072427
36,09393028 170,19943185286 86,8477623524944
36,14593028 101,737484360538 86,0582538485076
36,19793028 80,3025487075483 85,3885361026413
36,24993028 93,0285046151048 84,8275797832603
36,30193028 151,037721791445 84,5855969281121
36,35393028 179,987584162794 84,2398850631256
36,40593028 94,8784696625326 83,5359957973902
36,45793028 158,377582127619 83,3809721208441
36,50993028 38,0815256365104 82,7520981499509
36,56193028 136,248544647216 82,7782501756154
36,61393028 74,0183934196457 82,3361862486907
36,66593028 196,913833965088 82,5173878090665
36,71793028 10,7328666654221 81,8129048151537
36,76993028 61,322967081348 81,8684428444554
36,82193028 92,819440764476 81,910238807483
36,87393028 141,420686944985 82,0398146279839
36,92593028 20,9725900879948 81,7062176258039
36,97793028 4,95493432081003 81,7690587825147
37,02993028 -32,2919914047197 81,7108098905167
37,08193028 79,0816949558575 82,2728109922845
37,13393028 87,4411396634414 82,4191067741037
37,18593028 126,284810469613 82,8735381774843
37,23793028 80,6832214204842 83,0318928721416
37,28993028 90,8193498735382 83,3011589278853
37,34193028 206,42986505606 84,1681520488225
37,39393028 158,032410698429 84,4237921017624
37,44593028 211,126197899929 84,9339259044079
37,49793028 97,2275566748849 85,0288843975392
37,54993028 155,06594970503 85,9043701489192
37,60193028 109,333604180336 86,0936338143575
37,65393028 155,004574644927 87,0232492933973
37,70593028 199,923533173252 87,7564381641656
37,75793028 71,3012774102808 87,8506174555696
37,80993028 191,638749010127 89,0850360622485
37,86193028 53,5648416582899 89,1456370384754
37,91393028 180,131185636636 90,525614476038
37,96593028 16,9910280242893 90,4647341544247
38,01793028 0 91,1298707515556
38,06993028 113,915441545183 92,6305811701461
38,12193028 26,2996079467857 91,3778243175189
38,17393028 7,36330397749589 90,3798619200982
38,22593028 91,9173527863786 89,9186183748177
38,27793028 91,488885732665 89,0315139223543
38,32993028 126,802313291292 88,4247319691936
38,38193028 210,388214257002 88,0189099129605
38,43393028 49,8930791379516 86,4601411127604
38,48593028 -13,2381899189459 85,408056243147
38,53793028 90,057614230861 85,2478078870915
38,58993028 214,189131775894 85,0345330133647
38,64193028 72,7820144927346 83,8665388082801
38,69393028 163,735076783841 83,6708251879461
38,74593028 86,5514082822674 82,8165508039162
38,79793028 41,4980058329984 82,0729242025416
38,84993028 112,992998408354 81,9363517439219
38,90193028 118,249782765234 81,4371366287653
38,95393028 8,25270510225528 80,6730690033812
39,00593028 68,6712432178037 80,5444591420327
39,05793028 -46,9127515150503 79,8376487211429
39,10993028 71,4366124610242 80,0176088892941
39,16193028 116,028474064217 79,9260192056339
39,21393028 61,8185827269399 79,586203177994
39,26593028 0 79,1930207134715
39,31793028 -4,39087714128073 79,1549026215486
39,36993028 34,3035249806599 79,2757149466499
39,42193028 14,3346484154863 79,2523655616039
39,47393028 59,0168043024078 79,4724176837278
39,52593028 143,506269250199 79,898218066931
39,57793028 -5,71149667694863 79,6045619523419
39,62993028 -3,82541818145728 79,7834736352328
39,68193028 54,9326682207766 80,2325513573659
39,73393028 -13,4800028867985 80,275075171776
39,78593028 118,485228382806 81,0481308845307
39,83793028 16,624817546126 81,050110692935
39,88993028 -38,6387707821978 81,3731495275255
39,94193028 48,0579983353573 82,128128530812
39,96793028 1,83897206684378 82,1029915815047