File: 2021/xrd/raw_data/asc/#8137_4_40_R12_1_8_M15_P0026_T200 _1.ASC
4,00993028 0 260,47648646279
4,06193028 -3433,59518505411 248,888165683359
4,11393028 -4522,71050642624 242,056937664394
4,16593028 -4003,48044714799 238,485729689306
4,21793028 -1658,00088845806 238,30015953805
4,26993028 3265,88550743595 242,489124403348
4,32193028 12110,8814496925 252,54863796698
4,37393028 28297,9211455402 272,308930628901
4,42593028 57890,4982961859 306,468520521754
4,47793028 109823,395870972 358,385562646906
4,52993028 123572,499953422 359,479885062589
4,58193028 52716,1342769843 275,3239928657
4,63393028 17012,3110950416 229,756528548033
4,68593028 7505,42121170727 213,769573220189
4,73793028 3495,99712241542 204,575957754582
4,78993028 1475,77576876793 197,985658695718
4,84193028 604,564612580889 193,268862007522
4,89393028 465,211408143452 189,637151235564
4,94593028 167,159088190423 185,82732584565
4,99793028 928,087175607983 183,647286469159
5,04993028 597,834612983945 179,930801959854
5,10193028 366,058479509629 176,343769167258
5,15393028 28,9509753102066 172,795133683634
5,20593028 -138,550456836459 169,507776066618
5,25793028 0 166,712992588673
5,30993028 -278,852355755902 164,998523059904
5,36193028 -313,191762477534 163,728673816956
5,41393028 -405,233122490677 162,441748057304
5,46593028 -246,91411068826 161,645448240017
5,51793028 -302,678481932329 160,560443952046
5,56993028 3,63797880709171E-12 160,069105861819
5,62193028 -287,9752688634 159,465963625289
5,67393028 -357,099600858426 159,278198274694
5,72593028 15,8927079466557 159,959707421984
5,77793028 -179,247324657301 159,602433294582
5,82993028 -114,232001981765 159,987161518758
5,88193028 1,81898940354586E-12 160,295354109019
5,93393028 72,9184009364471 161,084270829109
5,98593028 -6,20329836226119 161,562519357217
6,03793028 602,365040904766 163,609251908068
6,08993028 884,151054009151 164,984264543387
6,14193028 1927,58203933774 168,022122007263
6,19393028 3859,44727167329 173,040658835895
6,24593028 7355,17376391613 181,44945963196
6,29793028 14515,5870792099 196,851198417934
6,34993028 28846,9207774991 225,583535154941
6,40193028 44792,6272718258 258,078253170771
6,45393028 29605,7540433002 235,961160686705
6,50593028 12534,4041479248 202,829083402643
6,55793028 8165,77357446507 194,458738122405
6,60993028 6913,15956342561 193,310194931397
6,66193028 6166,59441790209 190,623408574612
6,71393028 5750,85273318133 187,144790134629
6,76593028 5327,13858424049 183,80188034374
6,81793028 4993,40620184347 180,725412970499
6,86993028 4515,92556283239 177,45397924079
6,92193028 4491,14596213513 175,363928817611
6,97393028 4124,58293460746 172,55861085305
7,02593028 4242,36894108634 171,086733736012
7,07793028 4040,87427230878 168,928391493203
7,12993028 3884,56334330349 166,963385067623
7,18193028 3587,234018667 164,571645861132
7,23393028 3197,93946351717 162,193151954212
7,28593028 3065,95015565084 160,574409534884
7,33793028 3112,69363211918 159,361548914141
7,38993028 2917,06093002572 157,708009305388
7,44193028 2842,78009971387 156,500050831443
7,49393028 2771,47724360175 155,20651480812
7,54593028 3069,21025764532 154,816719771187
7,59793028 3699,25912749597 155,124898923272
7,64993028 4666,89512649997 155,931929172587
7,70193028 7586,9255972363 160,113437246034
7,75393028 14315,1366120697 170,071781723604
7,80593028 28244,0843703708 189,277819706117
7,85793028 39256,3284766044 202,192712752671
7,90993028 23321,4169289872 180,75213648154
7,96193028 8064,01969805529 158,23008527724
8,01393028 4087,34384025845 151,618683693681
8,06593028 2653,24699586838 149,118522858104
8,11793028 2109,70584313212 148,181933544384
8,16993028 1815,94729509663 147,681472594399
8,22193028 1607,1090570512 147,448836174672
8,27393028 1379,05600952606 147,190469858759
8,32593028 1370,774553661 147,423942604735
8,37793028 1184,4725304769 147,461003697205
8,42993028 1234,050425222 147,916811303586
8,48193028 1151,66815495537 148,311936825624
8,53393028 1045,16462258392 148,602564904806
8,58593028 971,581035560424 149,065727875568
8,63793028 792,288056006095 149,364348051956
8,68993028 1020,62860472967 150,568244691346
8,74193028 985,767418026486 151,310606113051
8,79393028 1128,00934626978 152,480476228424
8,84593028 1526,46561995541 154,208934954052
8,89793028 2122,92430705967 156,608131476122
8,94993028 4072,66520773651 162,311573887758
9,00193028 8850,57721091744 174,898967538857
9,05393028 17786,3446774122 197,494519314592
9,10593028 18205,0165334979 201,974031907753
9,15793028 6882,52632589158 176,262196160233
9,20993028 2689,55262108805 165,981128902458
9,26193028 1688,31049361959 163,625956308915
9,31393028 1059,69655039028 159,715809889402
9,36593028 944,044862299139 157,470196511303
9,41793028 825,527677080976 155,250638912136
9,46993028 671,811900193577 153,075703792107
9,52193028 662,871421294662 151,307697525895
9,57393028 344,490767883741 148,779517814103
9,62593028 620,949130066227 148,013520786443
9,67793028 511,696912200261 146,16081063811
9,72993028 481,392646241626 144,612260811762
9,78193028 425,417006078196 143,067768895302
9,83393028 337,482222017572 141,5057888348
9,88593028 465,017097630134 140,679819982546
9,93793028 224,879869561639 138,769090808008
9,98993028 477,004536066779 138,362245147839
10,04193028 636,297944436938 137,59049365658
10,09393028 1484,1975575806 138,492051873796
10,14593028 2491,78695059147 139,434539345841
10,19793028 2227,50967954246 137,852987782044
10,24993028 928,281088510163 134,53587502365
10,30193028 616,798405009165 133,18071224617
10,35393028 296,404753715629 131,998888277813
10,40593028 257,188748837012 131,346152789505
10,45793028 269,989611498479 130,855923916079
10,50993028 50,1841900262207 130,025602324365
10,56193028 186,365773000221 129,920014021797
10,61393028 215,286536196789 129,690994927826
10,66593028 56,7900526478352 129,141710155602
10,71793028 91,5678526200772 129,060787292465
10,76993028 176,379679502719 129,114845360361
10,82193028 310,726653708982 129,404185078412
10,87393028 340,164330965878 129,436552246499
10,92593028 448,50316349388 129,828509372783
10,97793028 878,538273956117 130,660341993824
11,02993028 2360,67639322665 133,849210211659
11,08193028 6401,43474048532 142,173166714981
11,13393028 10776,1842155551 152,500375695469
11,18593028 7742,38525591859 148,403695595414
11,23793028 2164,54246515522 136,222014354813
11,28993028 768,861573581751 133,240217438835
11,34193028 373,247124508902 132,711231383692
11,39393028 -21,4316520238244 132,118398851766
11,44593028 91,3403344461476 133,185007489171
11,49793028 41,4381488109229 133,67071358715
11,54993028 -80,9624152477627 134,029633579713
11,60193028 127,725230577887 135,49484646928
11,65393028 -26,8540474323763 135,780322709183
11,70593028 -200,299803810398 136,029005671396
11,75793028 -11,1220305802872 137,591478380891
11,80993028 8,23701603186601 138,557620141982
11,86193028 108,164998214463 139,854730663846
11,91393028 -11,6290363026365 138,127014889856
11,96593028 -61,086786961192 136,237275995662
12,01793028 93,6589074684434 135,069721646412
12,06993028 -67,6977571806492 132,893921269682
12,12193028 1,81898940354586E-12 131,594206011937
12,17393028 61,2236477017123 130,23900069591
12,22593028 16,3932715398023 128,738110365299
12,27793028 155,124159593892 127,740864137692
12,32993028 91,0381906629955 126,152615047955
12,38193028 53,1885732225219 124,752085062461
12,43393028 0 123,508243070914
12,48593028 171,176525970324 122,93874555564
12,53793028 27,3979790130961 121,490490940653
12,58993028 184,406412847869 121,071019615259
12,64193028 -24,5682328042658 119,63197164281
12,69393028 144,262468318768 119,301624421811
12,74593028 109,758682403512 118,490939321321
12,79793028 -73,9103779061734 117,268762238409
12,84993028 110,829799309129 117,153945555767
12,90193028 135,553586312219 116,681005977623
12,95393028 121,102478378636 116,1501718773
13,00593028 -29,6077429602101 115,373544687025
13,05793028 0 115,097853823026
13,10993028 14,656346944319 114,829945648979
13,16193028 123,934990494245 114,866399315365
13,21393028 136,153112307236 114,740855268703
13,26593028 146,290039118794 114,661481162135
13,31793028 48,8842135157847 114,407467687766
13,36993028 265,277581616308 114,938383517943
13,42193028 389,01515688968 115,269222783458
13,47393028 563,881890994762 115,811024532508
13,52593028 1169,20469265552 117,253797061504
13,57793028 3247,49598696102 122,115595721741
13,62993028 7626,0503464066 131,910654253525
13,68193028 9589,16434468376 137,790815941312
13,73393028 4622,27118939189 128,102647578031
13,78593028 1295,07720336064 120,095527950646
13,83793028 502,769321071821 118,573722931912
13,88993028 199,266440756568 118,207684428921
13,94193028 214,918305672283 118,900901519624
13,99393028 271,635585425729 119,799953373787
14,04593028 15,614590990097 119,71833928094
14,09793028 153,62966550009 120,948924281934
14,14993028 17,8569438292925 121,332115388496
14,20193028 -10,2261967633622 122,107001975367
14,25393028 -264,89574377378 122,057556841019
14,30593028 53,4819701521301 124,094925069739
14,35793028 86,8233564374077 125,236694237297
14,40993028 203,091835673968 126,661713672683
14,46193028 101,270042957838 127,319628391903
14,51393028 -13,4194482236226 126,850058996463
14,56593028 80,2015193917105 125,785657142997
14,61793028 35,1891178387132 124,236256244758
14,66993028 -217,369092726439 121,961761125152
14,72193028 -8,81254541640101 121,450040833951
14,77393028 62,9456037384116 120,441620400167
14,82593028 -135,008742660092 118,547139172148
14,87793028 -25,2845075375726 117,915325406561
14,92993028 51,6777828573831 116,956095432175
14,98193028 9,99496850111427 115,782178425929
15,03393028 119,553312632088 115,162179845571
15,08593028 35,1877198065031 113,823697170189
15,13793028 177,073045472403 113,470662153509
15,18993028 86,380272320851 112,319099812672
15,24193028 -9,09494701772928E-13 111,248687598351
15,29393028 5,06311422344606 110,750974645399
15,34593028 -100,830634752385 109,82905642884
15,39793028 36,816525442393 109,612036887808
15,44993028 63,7170705205972 109,27168741676
15,50193028 67,490034570169 108,759985978739
15,55393028 94,8719417721777 108,507237371647
15,60593028 92,5119412657814 108,205287187718
15,65793028 137,529325934087 108,024219363786
15,70993028 231,301408331939 108,069737113988
15,76193028 580,612390804832 108,725037090111
15,81393028 768,080591641074 109,066663232955
15,86593028 503,584755479043 108,44056887541
15,91793028 122,763509229428 107,596090678465
15,96993028 153,912956961487 107,742256878423
16,02193028 206,78171614638 108,02000528292
16,07393028 63,3611542220979 107,82577629893
16,12593028 55,645708131663 108,109574962289
16,17793028 0 108,220252282362
16,22993028 165,311914673292 109,104770487682
16,28193028 86,5706409066261 109,331667549831
16,33393028 124,855981199348 110,024225653732
16,38593028 158,125143556604 110,668145711557
16,43793028 222,110812721788 111,54207405174
16,48993028 147,703210411248 111,997691973192
16,54193028 183,517405880796 112,953825307366
16,59393028 128,337025137746 113,449892730698
16,64593028 7,0548156168652 113,961507549379
16,69793028 69,3722003087705 115,095259563966
16,74993028 141,911767456211 116,294768003641
16,80193028 100,873620460093 117,180916288137
16,85393028 47,3120486269027 117,927295554685
16,90593028 153,997085263079 119,39413165632
16,95793028 78,4624855843176 120,193448298443
17,00993028 82,4639614947055 121,356870416361
17,06193028 279,608420472743 123,327897047979
17,11393028 271,366821840269 124,424211054917
17,16593028 126,810707334465 122,627191138045
17,21793028 42,0120950107412 121,09500839171
17,26993028 15,0511656876806 119,917280190182
17,32193028 112,906443429313 119,168916065188
17,37393028 94,5801561509525 118,035719351984
17,42593028 170,557007667342 117,255489533749
17,47793028 164,407909507304 116,299892019499
17,52993028 90,9699276934534 115,09983532456
17,58193028 167,997408604488 114,576454956747
17,63393028 8,95670297336801 113,126860256233
17,68593028 -47,87443762969 112,186501695344
17,73793028 0,20635770122135 111,614856332196
17,78993028 -123,003286104422 110,577188988448
17,84193028 51,0201130248151 110,427526267211
17,89393028 112,058092256142 110,005905528982
17,94593028 32,1020918371714 109,275782481341
17,99793028 68,9853788097453 108,919457343055
18,04993028 134,067363585893 108,681159371107
18,10193028 187,403420295562 108,45403191789
18,15393028 154,092104459727 107,969045115292
18,20593028 370,492210283674 108,296583369769
18,25793028 764,64553504247 109,013967805646
18,30993028 626,562600963978 108,475339887123
18,36193028 365,108925402375 107,782091803387
18,41393028 202,354960273557 107,369705042248
18,46593028 255,708751428303 107,511202361028
18,51793028 142,949289698316 107,339581074487
18,56993028 130,461618710317 107,422984312261
18,62193028 286,112163469889 108,021218437695
18,67393028 232,053647404023 108,091281456696
18,72593028 491,943380959379 109,032463011286
18,77793028 1043,38874979871 110,630852974224
18,82993028 1673,7112716001 112,690571546906
18,88193028 1704,98120152376 113,461228212583
18,93393028 810,355433358174 111,807611192126
18,98593028 437,39610642198 111,46671325296
19,03793028 258,187071782054 111,464798946984
19,08993028 183,361005020945 111,912607987923
19,14193028 307,447504082787 112,954428746846
19,19393028 219,351403720685 113,513636478134
19,24593028 184,628412032323 114,297971982579
19,29793028 159,053024904998 115,038944215082
19,34993028 401,225704730497 116,765345213761
19,40193028 367,32193683495 117,649025417575
19,45393028 353,548647266169 118,625986892418
19,50593028 367,703259486051 119,723015257113
19,55793028 309,855537842062 120,601769918564
19,60993028 405,666141876073 122,106748533848
19,66193028 459,408087748928 123,532537265708
19,71393028 529,077961994076 125,036056462238
19,76593028 398,121680936075 124,129333583445
19,81793028 422,382556515118 122,992805827415
19,86993028 584,161592640121 122,436269669573
19,92193028 726,88334238429 121,653466981602
19,97393028 762,061894282282 120,632096245083
20,02593028 650,37177976693 119,131223833364
20,07793028 288,658346453306 116,948300060372
20,12993028 469,518569410137 116,530165410916
20,18193028 660,996401212073 116,16224725799
20,23393028 595,094328282234 115,097102145352
20,28593028 491,050587688585 113,896744511459
20,33793028 734,451583388002 113,872645544382
20,38993028 1155,63862487198 114,32330875235
20,44193028 1810,70170554988 115,264762569921
20,49393028 1613,92724923872 113,96307890557
20,54593028 1141,99037634086 112,082441008997
20,59793028 808,677956585837 110,608170604139
20,64993028 737,630856472823 110,078295266246
20,70193028 670,248586267428 109,487909803394
20,75393028 636,383508467645 109,010926465614
20,80593028 823,230309622908 109,148395390554
20,85793028 1042,52772141412 109,39866554964
20,90993028 1845,31800079519 111,093960093811
20,96193028 2872,70530147776 113,192801862708
21,01393028 2692,96075772474 112,663306581068
21,06593028 1544,57232951321 110,090082103175
21,11793028 838,549093595681 108,508890601595
21,16993028 671,350989133442 108,212335872687
21,22193028 629,65765009892 108,338798736901
21,27393028 603,959617139864 108,434647363776
21,32593028 711,304886833143 108,904129752999
21,37793028 908,970600314775 109,753473679034
21,42993028 1218,89311337118 110,840954084479
21,48193028 1480,07845251752 112,099297144241
21,53393028 1107,94895414851 111,798142753335
21,58593028 723,816658070036 111,22700298065
21,63793028 730,978854548505 111,970180353212
21,68993028 688,422296648747 112,462623582642
21,74193028 607,618639659805 112,755610303532
21,79393028 629,619162126166 113,682148461609
21,84593028 702,311979482753 114,868535657743
21,89793028 643,875717753487 115,493419262535
21,94993028 394,98583521244 115,539808342945
22,00193028 630,422178147194 117,301035566867
22,05393028 364,416596364909 117,295932419478
22,10593028 531,788717976435 118,899570182044
22,15793028 612,738900873971 120,343650399724
22,20993028 729,856645606185 121,918853936786
22,26193028 754,146129279802 123,172872966583
22,31393028 403,552612041491 122,975331523607
22,36593028 1008,5620767385 125,967792146619
22,41793028 1552,50604723583 126,720344259081
22,46993028 1574,25616372633 125,366959247885
22,52193028 1209,83930223267 122,74851594376
22,57393028 572,925430980357 119,257485276875
22,62593028 558,886591292559 118,111627115275
22,67793028 556,69022157312 117,089368978773
22,72993028 564,272292542888 116,058398542124
22,78193028 630,038302321623 115,392495723325
22,83393028 643,344763588922 114,459341895522
22,88593028 597,221870950683 113,303963708699
22,93793028 754,305195105099 112,969277067722
22,98993028 671,742360070003 111,857724488234
23,04193028 550,161384424777 110,686533776262
23,09393028 462,215465198598 109,853270427024
23,14593028 490,557289083962 109,338416059866
23,19793028 544,715439459509 108,906340410174
23,24993028 675,273929360906 108,750426123763
23,30193028 1066,71709795232 109,312578835352
23,35393028 2048,01417371642 111,236984461242
23,40593028 1888,26091553685 110,292387954187
23,45793028 1237,64258478117 108,375062530523
23,50993028 576,813157807824 106,617160335311
23,56193028 481,459085705458 106,203499760956
23,61393028 269,274418681694 105,587377508887
23,66593028 321,588233278733 105,646136865657
23,71793028 411,445003132588 105,848787333217
23,76993028 459,449921141729 106,014303082149
23,82193028 457,254636353703 106,095869883807
23,87393028 336,687973257584 105,983402856052
23,92593028 416,227309307151 106,4109124288
23,97793028 345,951950025575 106,45752528969
24,02993028 174,434333157387 106,327745878464
24,08193028 192,731783000431 106,759643714146
24,13393028 335,084264724378 107,488066245589
24,18593028 196,039218116134 107,613459737536
24,23793028 257,961954708947 108,340839068338
24,28993028 243,412465842438 108,847756284776
24,34193028 274,912816276058 109,681459307335
24,39393028 276,217598701381 110,239383553533
24,44593028 228,117977181676 110,762105667692
24,49793028 361,063653925776 112,036121840633
24,54993028 265,380775239405 112,564175895981
24,60193028 341,472929489529 113,6018365527
24,65393028 481,106323402663 115,005179125285
24,70593028 659,719269426434 116,577874386545
24,75793028 442,659919525748 116,856772195214
24,80993028 420,304498882471 117,788724855701
24,86193028 305,604294345023 118,398933752805
24,91393028 283,399401950028 119,443092097797
24,96593028 92,3222418414935 119,766652660174
25,01793028 345,733816639221 119,863298881877
25,06993028 294,866950651151 118,425627716393
25,12193028 543,733890109387 118,190389425785
25,17393028 568,296364542681 117,04298541967
25,22593028 450,669065752491 115,491455542857
25,27793028 212,715217518104 113,505473461513
25,32993028 401,908748473822 113,162407140283
25,38193028 188,14395766177 111,479242106216
25,43393028 336,672386720924 111,083354955536
25,48593028 197,493504964655 109,640174684599
25,53793028 320,924096661695 109,090140041832
25,58993028 221,282498152532 108,029485327348
25,64193028 276,767008620825 107,523116708012
25,69393028 157,805801359141 106,358015039523
25,74593028 139,106930148107 105,783751034976
25,79793028 206,349804605688 105,319758243706
25,84993028 161,828016184046 104,67646765885
25,90193028 365,976528571932 104,697785809315
25,95393028 380,975049753422 104,366405617157
26,00593028 263,619656925986 103,678354829664
26,05793028 281,604731421948 103,292000168134
26,10993028 320,18929437908 103,139808881003
26,16193028 231,034760820344 102,691185226233
26,21393028 373,187650312639 102,850677360539
26,26593028 253,029245779016 102,442093958154
26,31793028 436,091532002652 102,820267320864
26,36993028 571,55830808043 103,144830824561
26,42193028 592,964953647968 103,267233364137
26,47393028 380,476027102091 102,835703215566
26,52593028 414,643607873712 103,080872270266
26,57793028 369,820404864115 103,156175079767
26,62993028 328,306473685484 103,297337820024
26,68193028 443,014936851294 104,055137724902
26,73393028 846,854933165786 105,275030787107
26,78593028 980,367098846214 106,148964900148
26,83793028 1012,33952933357 106,792313060906
26,88993028 682,487027158398 106,440352244789
26,94193028 384,954040888721 106,03435285664
26,99393028 515,62969754497 107,219736937192
27,04593028 422,516364890273 107,49320871031
27,09793028 535,959409709078 108,649135305193
27,14993028 781,604058104072 110,048015270456
27,20193028 1013,93704070622 111,777673258474
27,25393028 755,262650524386 111,792918381324
27,30593028 492,900283844618 111,739551332005
27,35793028 506,965109414391 112,732442052771
27,40993028 397,11993514023 113,276580790691
27,46193028 361,662135609807 114,085229290335
27,51393028 320,946429287017 114,947413333969
27,56593028 491,004144577003 116,719340847612
27,61793028 460,083885948396 116,546342168536
27,66993028 309,455759620942 114,649758998866
27,72193028 369,594683396499 113,711251491322
27,77393028 429,555969161732 112,771708838107
27,82593028 445,562288136755 111,689822049418
27,87793028 511,379622695015 110,7962461848
27,92993028 1015,92413249417 111,56349512505
27,98193028 1246,16952130505 111,226565308587
28,03393028 1050,74689089159 109,513093694143
28,08593028 590,702575280285 106,951298628105
28,13793028 457,577277137012 105,800672615725
28,18993028 300,185770956042 104,501235029339
28,24193028 277,421016643363 103,527636816486
28,29393028 389,126691353888 103,235741483846
28,34593028 462,152518023355 102,663963999753
28,39793028 509,88542096902 102,199578276282
28,44993028 441,558465198504 101,40955768947
28,50193028 355,139089304083 100,676554923189
28,55393028 202,734949788334 99,7542310333382
28,60593028 216,99613099301 99,3487691671728
28,65793028 151,963150766724 98,7558380782075
28,70993028 163,154531364914 98,5549372797242
28,76193028 269,577800870837 98,5378902684145
28,81393028 269,534945018634 98,3521974835515
28,86593028 209,699830403551 98,018259172325
28,91793028 240,705104040997 97,9900787478202
28,96993028 238,140235301348 97,9248313595887
29,02193028 366,354428669709 98,2410981494271
29,07393028 250,324864440079 97,9928672227311
29,12593028 527,522163685031 98,8167379525592
29,17793028 313,800405975806 98,4352420933526
29,22993028 359,550482694113 98,7562393099907
29,28193028 321,478146113012 98,9668573209858
29,33393028 349,397664143482 99,2196614568693
29,38593028 433,161979070884 99,8425155258122
29,43793028 954,793985719138 101,786953138345
29,48993028 1110,78566148317 102,70024032453
29,54193028 872,641786485034 102,6762848943
29,59393028 623,087785954493 102,400308320683
29,64593028 408,946473443138 102,288587924863
29,69793028 388,561602124317 102,952672954228
29,74993028 251,451153980726 103,001017922193
29,80193028 186,852752993472 103,437505229818
29,85393028 290,516077427789 104,727948552592
29,90593028 139,640714253753 104,866613563994
29,95793028 261,017941149021 106,179487726733
30,00993028 261,568259609148 107,011809203142
30,06193028 18,9425628182407 106,809607530741
30,11393028 355,839733595657 109,208122698496
30,16593028 336,091216350446 110,069204238181
30,21793028 235,123473852491 110,408752041451
30,26993028 56,070239911618 108,384886746074
30,32193028 147,948435140477 107,595204922595
30,37393028 85,1393700556155 106,231024799949
30,42593028 87,5302887528323 105,06884218653
30,47793028 168,095724837432 104,442781353175
30,52993028 375,177027094914 104,220517649143
30,58193028 399,450579514434 103,259621739574
30,63393028 249,369382503454 101,620128021229
30,68593028 265,285646481727 100,91092926538
30,73793028 94,5515541293553 99,4090025877721
30,78993028 173,93035656775 98,9001336173944
30,84193028 236,977867835853 98,383737993845
30,89393028 163,05480100388 97,4309756038723
30,94593028 180,436716014832 96,685002581676
30,99793028 99,2660128564758 95,7929187011416
31,04993028 70,5687685441426 95,1584550833467
31,10193028 84,8649866791447 94,6695392157681
31,15393028 88,071880968525 94,1927552695208
31,20593028 232,52682128206 94,2233670943363
31,25793028 324,651385208003 94,0583733591731
31,30993028 229,672728051092 93,4102443625686
31,36193028 245,805288292629 93,1855966390136
31,41393028 53,6982283630477 92,4396899820926
31,46593028 124,276558919084 92,4176321256623
31,51793028 116,131134569354 92,2486933628948
31,56993028 133,064054154719 92,196987255498
31,62193028 107,157905173685 92,0833814566087
31,67393028 202,010491762499 92,3309174288806
31,72593028 221,716329048654 92,458599663194
31,77793028 222,718887196259 92,5132739820971
31,82993028 -104,185297195229 91,7504181188577
31,88193028 131,983584766468 92,6066048030313
31,93393028 -3,62954121613438 92,4365364119458
31,98593028 313,542231492129 93,7001299241012
32,03793028 58,7493174720476 93,2146224432049
32,08993028 60,1152793677511 93,6147200935822
32,14193028 3,02243119616469 93,799692737925
32,19393028 74,5535635723272 94,4719659538346
32,24593028 127,725504356144 95,1070198539028
32,29793028 129,55067873379 95,6254427186384
32,34993028 22,2893404584356 95,8398437338677
32,40193028 151,093059123734 96,8727208303588
32,45393028 38,0705010976117 97,1073093287182
32,50593028 204,112774250339 98,5854384835151
32,55793028 163,261431607992 98,9835578588345
32,60993028 361,99021614099 100,633115249213
32,66193028 519,499258219661 102,156156516695
32,71393028 421,579622897747 102,570339839713
32,76593028 138,284929407069 102,132592485486
32,81793028 85,4282489653624 102,739628669265
32,86993028 236,125426824939 102,929844454115
32,92193028 159,227399468496 101,410946122433
32,97393028 337,435822387481 101,149634904076
33,02593028 255,813769427958 99,6953286656814
33,07793028 52,3973715622242 97,7380534802188
33,12993028 -34,8430308912111 96,2502535827701
33,18193028 167,257996149481 96,2793394330832
33,23393028 116,741195328386 95,1950029249235
33,28593028 30,0554336241639 93,943460152085
33,33793028 106,442048671139 93,3764414673542
33,38993028 -6,62613374795819 92,1415265727656
33,44193028 14,2797857644064 91,4466546833016
33,49393028 55,0180638859283 90,8134203939351
33,54593028 169,224854784877 90,6194600628339
33,59793028 65,9605802200695 89,5812639051894
33,64993028 158,179869309339 89,3893364408516
33,70193028 145,167368071607 88,7384807730653
33,75393028 51,4945919675174 87,9805684659105
33,80593028 158,348058830011 87,9338831502963
33,85793028 108,78820371349 87,3076563276357
33,90993028 101,090258825075 86,9304026681121
33,96193028 292,688146208469 87,210232056422
34,01393028 321,776293313326 87,0043952538987
34,06593028 221,625098783785 86,4958104275987
34,11793028 67,6868439074797 85,8698234624927
34,16993028 110,130032076646 85,8718825480489
34,22193028 -18,2027538591738 85,4029177871778
34,27393028 20,2821524173851 85,4732648426027
34,32593028 11,199595176141 85,4173852277129
34,37793028 63,1419014055728 85,6658962809473
34,42993028 89,9685813994001 85,8540717538323
34,48193028 67,1978153521932 85,9588972865163
34,53393028 104,995898964351 86,1528097553752
34,58593028 9,09494701772928E-13 86,0632224711996
34,63793028 126,059316427934 86,8052161927258
34,68993028 -29,1852616080923 86,5358917300027
34,74193028 48,9975978176499 87,2038959916871
34,79393028 89,0637900536003 87,6924953406963
34,84593028 251,043641844637 88,8494679382305
34,89793028 94,4306494472894 88,6356491298804
34,94993028 189,406775008644 89,7000157058536
35,00193028 184,175981461374 90,2079439778234
35,05393028 178,562869571931 90,8254163716006
35,10593028 102,126946802063 91,1040720828224
35,15793028 158,069675534113 92,0640076565629
35,20993028 121,518537400871 92,6090334583376
35,26193028 220,249167965228 93,7897806193994
35,31393028 179,583065937709 94,37497951176
35,36593028 92,3199090964326 94,749995593188
35,41793028 196,429138190431 96,1007790299343
35,46993028 43,0444208644012 95,5747685487225
35,52193028 262,23473901539 95,6235725290135
35,57393028 200,71638022659 94,2612781876631
35,62593028 227,873466805087 93,4039821916381
35,67793028 209,586752097985 92,3860554832004
35,72993028 -0,884365594982228 90,4681730213696
35,78193028 126,569633890582 90,1833132716571
35,83393028 62,8370423472034 88,9653680320991
35,88593028 204,720216230422 88,8547399682015
35,93793028 127,587609564237 87,6409061525361
35,98993028 108,088226440967 86,8909244865176
36,04193028 58,0666514811201 85,9888591270536
36,09393028 143,190267665742 85,7214067482975
36,14593028 71,3957815535377 84,7984598079253
36,19793028 155,219468042012 84,5043603437333
36,24993028 54,5137224379359 83,5738651557697
36,30193028 78,7686590480498 83,1752808344886
36,35393028 18,2643827612073 82,5040589467221
36,40593028 87,3797575468207 82,3523545203845
36,45793028 43,3912482276473 81,8401023301616
36,50993028 87,2510151133783 81,6866518116196
36,56193028 147,604051913096 81,5221929934414
36,61393028 93,9703098324444 81,1191532513328
36,66593028 35,337071470105 80,7101609577062
36,71793028 0,220057757684117 80,4531525782799
36,76993028 68,4272405850315 80,5468775588572
36,82193028 93,0336865955414 80,5490492075747
36,87393028 136,825476765071 80,6686924949125
36,92593028 57,8538108591856 80,4160465768165
36,97793028 83,8181884912283 80,6042933292152
37,02993028 110,538444268826 80,7303617338012
37,08193028 151,524920987805 80,995931314234
37,13393028 105,458545528685 80,9931204130831
37,18593028 51,0449394354828 81,0588823639564
37,23793028 51,0772962826504 81,2628541515256
37,28993028 141,071130698858 81,9437041956539
37,34193028 178,98402881132 82,3875815653646
37,39393028 276,810639645316 83,1850385206961
37,44593028 230,103594247987 83,31280837595
37,49793028 152,539591244769 83,6207870725557
37,54993028 160,152585312728 84,0491965381028
37,60193028 226,934042707567 84,870065401584
37,65393028 125,141406377112 84,8604984641828
37,70593028 232,591519436562 86,00555075657
37,75793028 114,960311709631 86,0372457783405
37,80993028 200,977006441174 87,2201164218921
37,86193028 136,547758652524 87,5287340699093
37,91393028 21,6723027076732 87,6219156804597
37,96593028 113,602962503208 88,8121295009426
38,01793028 0 88,9386391476589
38,06993028 86,6089404905124 90,3351094289027
38,12193028 -31,7465139178425 88,9842150292942
38,17393028 121,190290145639 88,9740119889566
38,22593028 -11,135679294398 87,4571500668258
38,27793028 79,7355905016366 87,1374591938834
38,32993028 63,1727194309615 86,3290000095487
38,38193028 46,3369305611564 85,5324419613434
38,43393028 -29,8150855010877 84,4341108557861
38,48593028 186,381349170136 84,8092155224217
38,53793028 154,086873794016 83,9642678461436
38,58993028 95,8805025506144 83,236825920706
38,64193028 247,596224634124 83,2147889931847
38,69393028 70,1382718779737 81,9784227082806
38,74593028 109,429918024005 81,660159968814
38,79793028 110,579131440933 81,2737493800191
38,84993028 52,3671638164956 80,5126257476001
38,90193028 -94,3381003056852 79,6343573588799
38,95393028 13,5318831298123 79,6553668899841
39,00593028 -73,7886228407342 79,0593878623336
39,05793028 -72,300334213639 78,8673655542089
39,10993028 -116,749780193774 78,5265119736313
39,16193028 47,6889066981635 78,8573184318458
39,21393028 -4,42188842713813 78,5659790982419
39,26593028 55,3363806347825 78,6691516772261
39,31793028 -39,2157592717945 78,2828624127462
39,36993028 -40,5551315402158 78,2642597291972
39,42193028 -17,0982738591033 78,3506991556217
39,47393028 -6,94280476339691 78,449145052516
39,52593028 136,289629252589 79,0286243531888
39,57793028 -49,26630963556 78,5674592989993
39,62993028 128,440995566381 79,3177808926343
39,68193028 -20,8858056976114 79,046761616152
39,73393028 4,63608888893759 79,3727216307674
39,78593028 40,6713169923678 79,8126755627473
39,83793028 34,9288602712068 80,0847547624283
39,88993028 -19,6665094750106 80,3984850179422
39,94193028 2,40628620919506 80,8487473824158
39,96793028 0,488770942193696 81,010019878937