File: 2021/xrd/raw_data/asc/#8201_Pyn-MOF_4_40_R12_1_8_M15_P0026_T200 _1.ASC
4,00993028 0 253,152128175925
4,06193028 -2977,52190662062 236,042957730549
4,11393028 -3820,00220127257 223,134838297463
4,16593028 -2897,14321518065 213,8145133187
4,21793028 -2322,23869196779 203,564722575544
4,26993028 -1357,22216255078 193,905358367714
4,32193028 0 184,973832114146
4,37393028 -122,548447837315 180,818905878232
4,42593028 -337,462120910041 176,473349985387
4,47793028 -235,810578031967 172,884435686077
4,52993028 -361,932847990778 168,935282010265
4,58193028 -193,101742448853 165,63587432549
4,63393028 -1,81898940354586E-12 162,373683785924
4,68593028 -94,6773746509662 160,20488713085
4,73793028 -254,874806065147 157,868914036859
4,78993028 -224,953832990033 156,16792103455
4,84193028 -247,068292421822 154,287072189665
4,89393028 -285,28293617903 152,452612989664
4,94593028 -1,81898940354586E-12 151,354952540044
4,99793028 -79,0575114967505 150,135104843561
5,04993028 -176,804869317943 148,840174678325
5,10193028 -375,345506628186 147,502037446619
5,15393028 -275,004124071313 146,77617445613
5,20593028 -296,128940072771 145,92960277198
5,25793028 -1,81898940354586E-12 145,673846219667
5,30993028 -236,116852978326 144,593374896226
5,36193028 -207,544535944224 144,045542394503
5,41393028 -123,353821066461 143,678675747827
5,46593028 -138,069684791606 143,186291153221
5,51793028 -264,578874428384 142,567059433109
5,56993028 1,81898940354586E-12 142,756647638325
5,62193028 -112,928418927924 142,279856899605
5,67393028 59,6062245488029 142,462732262991
5,72593028 0,969626445008544 142,193833827362
5,77793028 -4,70691278439153 142,097595056312
5,82993028 76,5903515390492 142,25768579677
5,88193028 0 142,139011347757
5,93393028 6,18717427241245 142,518149736134
5,98593028 139,386137292799 143,121135736774
6,03793028 130,223375873602 143,627065780147
6,08993028 131,793001015199 143,950357056861
6,14193028 -37,3523756606664 144,093509906784
6,19393028 25,4670804033431 144,698342820766
6,24593028 15,9282332679704 145,370881112702
6,29793028 135,074803394033 146,341687284807
6,34993028 58,0034610184248 146,812987396223
6,40193028 178,263171148792 147,84742966659
6,45393028 256,733938007483 148,875405100963
6,50593028 0 148,887093960668
6,55793028 427,660500432314 151,370349081258
6,60993028 60,9324899627227 151,334547963676
6,66193028 -95,731630694012 150,165329626439
6,71393028 42,0860617125509 148,848236577567
6,76593028 159,605031098607 147,489463820441
6,81793028 421,667621452536 146,627004152595
6,86993028 203,771777352566 144,3801390439
6,92193028 189,872326318709 142,677892121381
6,97393028 -14,6377053857195 140,548452427621
7,02593028 -61,0325814410662 139,075230105636
7,07793028 83,7083847084414 137,964262173489
7,12993028 0 136,458146120799
7,18193028 77,5692770171372 135,401970804998
7,23393028 18,5870960531993 134,200202372086
7,28593028 122,914220051975 133,246095249669
7,33793028 52,0801076885582 132,21185481698
7,38993028 27,950647122645 131,165153321141
7,44193028 81,6706249827912 130,416448630115
7,49393028 -2,19007505245827 129,39320852061
7,54593028 31,177255319164 128,732556544842
7,59793028 39,6304750017916 128,037105501977
7,64993028 70,6334951139943 127,463206696687
7,70193028 51,2651105294644 126,865250373008
7,75393028 0 126,264217664236
7,80593028 15,8006435282878 125,918337784605
7,85793028 14,8535313972188 125,569855961724
7,90993028 -23,9607221223396 125,21964643458
7,96193028 241,685500943278 125,540623101329
8,01393028 274,331724009255 125,463862822908
8,06593028 725,737067125048 126,266476257747
8,11793028 1222,67354578418 127,263054548735
8,16993028 2395,75936611306 129,59966651149
8,22193028 4058,99601981199 133,083070404468
8,27393028 5523,40800590237 136,529863423757
8,32593028 4047,44196363793 134,209259496315
8,37793028 2038,16196197509 130,431568877211
8,42993028 1038,69024449934 128,511974357659
8,48193028 863,795127206413 128,525183585742
8,53393028 791,926882672684 128,745272242791
8,58593028 1180,95716745403 130,360182757117
8,63793028 1885,02964112089 132,588538898752
8,68993028 2951,1478243096 135,811894541308
8,74193028 4843,38065938676 141,126030084674
8,79393028 8782,16598685068 151,427253129163
8,84593028 16170,0114847005 169,251074826148
8,89793028 26927,3274840013 193,810425709408
8,94993028 36536,3399659978 215,940967536768
9,00193028 33396,525021973 214,255993568598
9,05393028 20992,3011473565 191,15658130497
9,10593028 10640,0758675271 167,477177412481
9,15793028 6105,49639515052 156,211642849593
9,20993028 4104,51155742981 151,505898431758
9,26193028 3233,89934430912 149,391015444095
9,31393028 3201,74803213092 147,403900913863
9,36593028 3724,43606092201 147,212299871046
9,41793028 4339,93804266046 147,351585033893
9,46993028 4227,02505160915 145,085174322213
9,52193028 3561,38296271109 141,317513546004
9,57393028 2461,02093247173 136,51635529318
9,62593028 1514,71449099463 132,439674638277
9,67793028 960,696341674035 129,607833232131
9,72993028 543,97028497365 127,164948013878
9,78193028 500,947925412815 126,016450104459
9,83393028 429,777232005268 124,724638112731
9,88593028 561,97995893923 124,067191478109
9,93793028 579,689773665217 123,078291717258
9,98993028 745,422591696752 122,574111647207
10,04193028 1280,63035372693 123,038108873019
10,09393028 2034,74405792262 124,115243529328
10,14593028 3086,93847959745 125,434877140506
10,19793028 4124,12498470434 126,798645399401
10,24993028 4126,81405569378 125,928369195588
10,30193028 3100,82279495714 123,09793371487
10,35393028 1699,79929758101 119,607058923697
10,40593028 697,265543127463 117,066966941651
10,45793028 280,845591698346 115,835379547752
10,50993028 142,437634550417 115,250924880262
10,56193028 0 114,691260087723
10,61393028 -59,4432510157785 114,420562810206
10,66593028 -189,459017952584 114,059772667504
10,71793028 -70,5731591010135 114,289509259454
10,76993028 -36,7944464850807 114,447620039376
10,82193028 -92,3725517238036 114,33851946494
10,87393028 0 114,744725897986
10,92593028 54,6993694851517 115,121778673707
10,97793028 -72,3867298952591 114,95107721326
11,02993028 23,8697399893626 115,579814676298
11,08193028 268,092806302024 116,560005791615
11,13393028 713,515266573406 118,190504231971
11,18593028 1617,01640248309 120,845869493257
11,23793028 3341,81001822735 125,840281959583
11,28993028 4827,04676549446 130,621452282458
11,34193028 4764,12798488843 131,957853992037
11,39393028 2795,86219940553 127,79960477421
11,44593028 1122,80971186083 123,730623054653
11,49793028 362,42666243008 122,141477775191
11,54993028 268,506838181491 122,575121575271
11,60193028 491,609596704848 124,326425453627
11,65393028 315,116805596239 124,658529311322
11,70593028 409,079823345055 125,9250760705
11,75793028 504,85351187488 127,341491601314
11,80993028 767,095646723515 129,380224130411
11,86193028 882,210327479655 130,981583272423
11,91393028 1621,03148343741 132,681894514543
11,96593028 2937,85061720064 135,795741403879
12,01793028 5184,58419316248 141,579940217148
12,06993028 8727,50114425448 150,486188706195
12,12193028 10276,1624956414 152,517637678921
12,17393028 10466,315851768 150,818305295631
12,22593028 10912,8827153729 150,017036613018
12,27793028 12882,8711821669 153,298937076265
12,32993028 16717,8420916238 160,175131065773
12,38193028 19888,9003291204 164,817140011996
12,43393028 24400,5695652903 171,984868230114
12,48593028 34415,8635939752 188,727353801851
12,53793028 52546,0300021441 215,333940699325
12,58993028 71237,1023243523 236,955331085543
12,64193028 72930,7369896756 233,872800813244
12,69393028 51379,1195634102 200,809429441146
12,74593028 26628,6847263625 161,626215030561
12,79793028 13367,7010305658 137,487722757568
12,84993028 7335,55145649251 124,975583112714
12,90193028 4634,72031036971 118,691999337456
12,95393028 2932,4409670297 114,555837942626
13,00593028 2153,84009888046 112,433466734138
13,05793028 1820,62318004268 111,378773883836
13,10993028 1349,68139099705 110,02277271545
13,16193028 1294,82823619154 109,679815356376
13,21393028 1559,57726161119 110,129924327787
13,26593028 2220,64602811748 111,517120963304
13,31793028 3172,19642854418 113,629036586726
13,36993028 3317,39302109925 114,069919784581
13,42193028 2869,40980436259 113,366215862604
13,47393028 1702,26013994319 110,886622467282
13,52593028 707,378705754284 108,586786982824
13,57793028 540,340304964154 108,416454124103
13,62993028 298,437361896268 108,040425064373
13,68193028 264,341396572865 108,254821091969
13,73393028 108,92369435851 108,196916518084
13,78593028 109,624529160953 108,717153496466
13,83793028 -11,5595797832848 108,771491909627
13,88993028 76,9223015628368 109,618038143142
13,94193028 99,8419440023126 110,282219272432
13,99393028 9,09494701772928E-13 110,496780309105
14,04593028 162,049216931127 111,751036980971
14,09793028 82,1530015108874 112,252346338755
14,14993028 -105,659068253934 112,244230616286
14,20193028 102,76893289893 113,880201624709
14,25393028 70,374693346087 114,604941485591
14,30593028 114,398138186466 115,681299216498
14,35793028 148,962226950586 116,771446317537
14,40993028 198,459322880377 117,928730792095
14,46193028 180,62024108779 118,859335485142
14,51393028 570,209558349997 120,47989690028
14,56593028 1120,93235082194 121,3227405231
14,61793028 1899,37856559047 122,899952499674
14,66993028 3648,0661908018 127,693800865555
14,72193028 5648,52927311115 132,682890167689
14,77393028 6121,66469738111 132,217823424382
14,82593028 4545,25879486517 125,561342296863
14,87793028 2470,73778331605 117,634229801146
14,92993028 1233,52174070515 112,713917512326
14,98193028 492,9532295554 109,435573798305
15,03393028 330,377769786261 108,05288375581
15,08593028 186,241516387703 106,617630761
15,13793028 177,678601232861 105,88083253505
15,18993028 -188,593414815761 103,990052787821
15,24193028 0 103,922114743467
15,29393028 111,400673588236 103,574870790852
15,34593028 173,067594893234 103,248339482073
15,39793028 261,502116249731 102,820409617776
15,44993028 573,031371946881 103,203513438363
15,50193028 1040,87531651989 104,02563669181
15,55393028 2119,6804470254 106,254171594646
15,60593028 2973,91959812451 107,854648267214
15,65793028 3013,37273657305 107,581083368484
15,70993028 2007,43072042803 104,917493448389
15,76193028 1072,76114494528 102,532906083072
15,81393028 531,731548804477 101,090117256573
15,86593028 211,69796124846 100,24498413365
15,91793028 134,369256374693 100,043819665004
15,96993028 116,769583084179 100,031030419583
16,02193028 62,2323741702521 99,9542747231942
16,07393028 62,1820967930171 100,118513168808
16,12593028 33,2074914265231 100,238902548895
16,17793028 21,3247294618213 100,415233302731
16,22993028 100,355357331329 101,015017850252
16,28193028 -35,0491898783966 100,880516381299
16,33393028 52,2132477315672 101,541980524528
16,38593028 58,5764398423971 102,074416985478
16,43793028 150,239594910367 102,785435581769
16,48993028 217,385809528323 103,40430764274
16,54193028 298,188732494729 104,340866394059
16,59393028 386,384980101933 105,270772467915
16,64593028 341,340148776679 105,879815363715
16,69793028 293,263319476341 106,493483113923
16,74993028 -4,63614830361985 106,073431049783
16,80193028 195,037019072315 107,638541562345
16,85393028 149,621375891339 108,326216259545
16,90593028 194,785117694272 109,370990232744
16,95793028 177,130862164572 110,174612637997
17,00993028 356,881507747244 111,850370970533
17,06193028 320,721662867832 112,668727692448
17,11393028 481,866627623317 114,300936782247
17,16593028 551,100305516015 113,304390499953
17,21793028 814,497394719954 113,143029790338
17,26993028 827,00830678752 111,941766971285
17,32193028 458,692495922768 109,262049651654
17,37393028 377,500818260696 107,889014756032
17,42593028 391,994279323292 106,888807800071
17,47793028 186,615311826753 105,196780458503
17,52993028 58,6876709591133 103,734096852009
17,58193028 163,980283199101 103,261417162037
17,63393028 -3,5042061124077 101,811964887221
17,68593028 77,0168275658916 101,131868147859
17,73793028 159,014940316241 100,672791370942
17,78993028 259,561624169632 100,267978031201
17,84193028 525,409616862112 100,403420530864
17,89393028 1144,63941724531 101,553014150109
17,94593028 1835,38804119432 102,904303689814
17,99793028 2235,18984684546 103,215152865398
18,04993028 2163,82756506586 102,363648117099
18,10193028 1269,03613694668 99,3887031621813
18,15393028 796,123148535685 97,8002105375335
18,20593028 373,010308678484 96,410704961574
18,25793028 179,990717624652 95,5717253815124
18,30993028 222,016511324339 95,4679814243698
18,36193028 36,223763904618 94,7848771220805
18,41393028 -22,5185134195208 94,4851646386625
18,46593028 26,1754982970806 94,5269786079459
18,51793028 144,489413040892 94,8014081957496
18,56993028 144,063276613174 94,8022523073137
18,62193028 130,866894405687 94,8422824432186
18,67393028 0 94,5761299723398
18,72593028 103,804144984973 95,0951280532745
18,77793028 117,98417670395 95,479125668017
18,82993028 202,931410892611 96,0503239795065
18,88193028 146,580240279851 96,3265155015503
18,93393028 213,269680555528 96,8950393642913
18,98593028 391,535415893332 98,0597318108792
19,03793028 461,447661771474 98,8627681791142
19,08993028 557,806619715866 99,7453634984938
19,14193028 263,998910961434 99,4606054007019
19,19393028 108,133120470462 99,656960639649
19,24593028 188,299533488787 100,705401943888
19,29793028 19,8672275881008 100,794130257532
19,34993028 12,244518384714 101,541968924161
19,40193028 144,228153028537 102,916859768175
19,45393028 -23,4410281126402 103,069221838865
19,50593028 180,819853805327 104,898214306574
19,55793028 21,6983116295123 105,122710823439
19,60993028 108,574024331801 106,512175782098
19,66193028 96,0608946218108 107,478608030387
19,71393028 63,0198578441359 108,383837634937
19,76593028 -42,1993824255178 107,576721927934
19,81793028 92,761815266228 107,142131932281
19,86993028 -58,8737768051651 105,415788897142
19,92193028 0 104,747137985198
19,97393028 163,876317479146 104,600303060565
20,02593028 114,134581723421 103,483390764322
20,07793028 147,33116404089 102,766443925871
20,12993028 315,608676305799 102,686626670572
20,18193028 400,665948754363 102,251056728844
20,23393028 421,298163833026 101,600498218958
20,28593028 263,081584506422 100,422693560729
20,33793028 316,461880851582 99,8620577698382
20,38993028 240,050482448527 99,0427213231484
20,44193028 156,837039273934 98,2872503121727
20,49393028 -10,4173794295511 97,2499845597952
20,54593028 54,3781283695989 97,073967847197
20,59793028 -2,35448871023891 96,5571346374378
20,64993028 168,465174321299 96,6791814430561
20,70193028 161,479616748315 96,4347550385474
20,75393028 506,095973960757 97,1383144868087
20,80593028 1274,72701702483 98,7829488930907
20,85793028 685,156233064405 97,0875554210404
20,90993028 201,725648571281 95,7574305303388
20,96193028 185,124783898699 95,6986299894578
21,01393028 101,975889033627 95,4911370214256
21,06593028 37,9186651694035 95,3771144712876
21,11793028 184,724458556396 95,8684534710506
21,16993028 428,100394321291 96,6454491273912
21,22193028 603,22308533579 97,3138552906213
21,27393028 1369,65833034606 99,5233353455855
21,32593028 2180,48815958232 101,957593054537
21,37793028 2786,19909351647 104,063694533545
21,42993028 2557,36144037631 104,125806019267
21,48193028 1671,27107885818 102,391867496876
21,53393028 1046,73426477543 101,079591281145
21,58593028 687,996100610272 100,61205310365
21,63793028 596,833827186018 100,983908636006
21,68993028 895,447156869066 102,496666409864
21,74193028 1021,71196300788 103,690105591128
21,79393028 1360,82092998734 105,440384010333
21,84593028 1760,59344082156 107,724573745029
21,89793028 2035,77975057666 109,824222579486
21,94993028 1532,56653658202 109,210349053098
22,00193028 1020,67980021162 108,438638064161
22,05393028 456,446682110543 107,304999101765
22,10593028 22,300686516618 106,620273389554
22,15793028 61,0366842072763 107,8058753485
22,20993028 42,362569271042 108,823553228081
22,26193028 151,500583876897 110,398577943298
22,31393028 9,98899840630838 110,917090646773
22,36593028 -79,3640494018018 111,118418021228
22,41793028 0 110,464342409951
22,46993028 -56,4115214622043 109,252261734163
22,52193028 70,4330470128407 108,821389191948
22,57393028 43,4636692852382 107,811368446213
22,62593028 241,362785568437 107,720752662648
22,67793028 377,30718701875 107,395162190682
22,72993028 451,969746086063 106,67834909179
22,78193028 516,283480512844 106,146752613793
22,83393028 340,604561139101 104,64750139539
22,88593028 405,738096462383 104,278806598031
22,93793028 155,283043678597 102,711788973616
22,98993028 173,909577313804 102,239686189528
23,04193028 15,8460656411862 101,187422219307
23,09393028 210,671306716955 101,229578931824
23,14593028 271,874251379374 100,968567023512
23,19793028 366,81488676763 100,786360186057
23,24993028 186,494870436311 99,8197327708335
23,30193028 128,003141936099 99,3879930101152
23,35393028 153,44170187062 99,0736167603006
23,40593028 228,027212450395 99,1596832955026
23,45793028 338,282121079199 99,2150738673016
23,50993028 531,213668588927 99,6046811449697
23,56193028 732,237192025647 100,029494167409
23,61393028 693,185514037322 99,8721916853465
23,66593028 778,115284566582 100,108725655948
23,71793028 862,74219151015 100,387065529464
23,76993028 1200,75710563733 101,322246052793
23,82193028 2094,36941918966 103,704480879345
23,87393028 2711,53130760399 105,518716098755
23,92593028 2934,57123776347 106,435617719382
23,97793028 3028,17238590628 107,052596750209
24,02993028 3743,05000765262 109,312315736494
24,08193028 3898,47298727792 110,427698286474
24,13393028 3294,26700041139 109,637865312631
24,18593028 2461,12404154505 108,185788756013
24,23793028 1510,07056582517 106,178525847514
24,28993028 1495,46357679856 106,661797016177
24,34193028 1621,53829724775 107,717181497321
24,39393028 1890,61971436078 109,249649987865
24,44593028 2786,28792911618 112,812135759248
24,49793028 3871,87276043891 117,38645635252
24,54993028 4539,38359097731 120,546695620001
24,60193028 5167,34464747919 123,819677555822
24,65393028 5642,71040009988 126,600001993243
24,70593028 6675,64610902232 131,45558341898
24,75793028 6832,85418559791 133,568380731135
24,80993028 6524,65779851778 134,292658005159
24,86193028 6153,1787274696 134,709127043474
24,91393028 6408,38866713141 137,36393915713
24,96593028 6898,58800767184 140,932622554058
25,01793028 8070,87622130825 143,621380520427
25,06993028 10170,9642720252 148,559544929411
25,12193028 14043,910234615 158,045390683759
25,17393028 18619,1351018428 168,003659324887
25,22593028 21126,7616604439 171,465724039512
25,27793028 19795,3371536431 165,41509919469
25,32993028 18282,0239179845 159,477660675729
25,38193028 17854,8510531824 156,36079858811
25,43393028 16091,8508814014 149,901744666549
25,48593028 12392,3522611315 138,896455252763
25,53793028 7875,15550697038 125,870023314029
25,58993028 4696,08740237582 116,446702147534
25,64193028 3025,99473904854 111,196954112296
25,69393028 2212,12354853759 108,310962059714
25,74593028 1947,73520530439 107,004719465426
25,79793028 2246,1039333432 107,292005532427
25,84993028 2297,33600995475 106,765666186769
25,90193028 2249,92163974194 106,03379335423
25,95393028 2105,22013646611 105,197983819323
26,00593028 1957,04685192783 104,446679621783
26,05793028 1702,21029544567 103,493724991154
26,10993028 1487,61777490675 102,686397197151
26,16193028 1468,71297910308 102,463718442324
26,21393028 1531,29020256888 102,478328401551
26,26593028 1941,59883116163 103,375302665072
26,31793028 2805,04555646349 105,397969358654
26,36993028 4157,45501910983 108,596757240045
26,42193028 5475,1444743471 111,678766187461
26,47393028 6053,80212962523 113,368011283877
26,52593028 5263,0624065521 111,986871508359
26,57793028 4054,31927572017 109,55917874759
26,62993028 2867,10647230975 106,966335155612
26,68193028 2432,25957044669 106,168967937467
26,73393028 2349,707917198 106,339716323123
26,78593028 2648,7883463714 107,862665560151
26,83793028 2585,79395773936 108,149677654254
26,88993028 2727,12357976213 109,364682787905
26,94193028 2631,64825971732 109,852265013478
26,99393028 2440,86920431788 109,970505902149
27,04593028 2457,24319672134 110,860078142127
27,09793028 2765,66463594851 112,587170367348
27,14993028 3032,65205015229 114,217988993921
27,20193028 3715,66967186916 117,483467677791
27,25393028 4851,12232304039 122,272727333555
27,30593028 6453,7006062441 128,432141425964
27,35793028 9737,93043910032 139,878813957196
27,40993028 15899,1431264558 159,233271692577
27,46193028 26520,9404065593 188,884820709188
27,51393028 41878,0872902658 226,670215083932
27,56593028 57091,5954503573 261,33225860485
27,61793028 61556,0000062328 269,846095202567
27,66993028 55538,5242643208 253,7551996643
27,72193028 40356,7988124576 219,417677481591
27,77393028 25957,75448224 184,112772830287
27,82593028 16323,0035319667 157,592450526521
27,87793028 11640,4111391979 143,04449824429
27,92993028 9270,21794425324 134,423512398596
27,98193028 7184,08584102539 126,632270779206
28,03393028 5829,52471617792 121,547887153575
28,08593028 4852,31911602207 117,246140370974
28,13793028 4722,91399612618 115,716608811804
28,18993028 4244,48537154413 113,167776458738
28,24193028 3401,1777902459 109,645245271181
28,29393028 2849,3837483814 107,287478045474
28,34593028 2221,07291169234 104,684516499768
28,39793028 1817,72286856766 102,832676154717
28,44993028 1845,48356531994 102,296848266778
28,50193028 1523,28078850598 100,824627278516
28,55393028 1242,40565605537 99,4651648640041
28,60593028 1237,66938946964 99,0119399223413
28,65793028 1498,66279109725 99,3507379627249
28,70993028 1877,66432564747 99,9468978251727
28,76193028 2397,06224798449 100,925635576381
28,81393028 3503,90027876513 103,402835137319
28,86593028 5180,17317969633 107,157335239822
28,91793028 6484,03747280242 109,985145322783
28,96993028 6677,20487773119 110,405053640955
29,02193028 5697,61304570253 108,276618818966
29,07393028 4057,08279678395 104,486016446189
29,12593028 2833,54650093115 101,610276164571
29,17793028 1831,9102199301 99,1035870999116
29,22993028 1324,71699089711 97,8641318274034
29,28193028 1010,31494576792 97,3477940392747
29,33393028 828,324534203617 97,0755446460151
29,38593028 724,12777332147 97,1233165535441
29,43793028 814,319682449032 97,8429293665377
29,48993028 737,243951749478 97,9944760257149
29,54193028 951,50684532133 99,13927296449
29,59393028 856,363724012218 99,2512745021653
29,64593028 917,826457833539 99,988082391233
29,69793028 846,918980472594 100,28524618193
29,74993028 1054,70607668531 101,709773051376
29,80193028 1051,44920048285 102,491330487898
29,85393028 810,730800191837 102,361662053586
29,90593028 698,641180895376 102,672900513785
29,95793028 523,051224812126 102,695995779948
30,00993028 537,635168939897 103,576547127207
30,06193028 383,725093643699 103,758885951091
30,11393028 433,836487543858 104,779312662147
30,16593028 531,598701427947 106,120151432049
30,21793028 587,195965878574 107,1200535235
30,26993028 670,449999480487 106,224495738607
30,32193028 527,560910749428 104,367912127266
30,37393028 490,027147978276 102,978289107896
30,42593028 512,96822326294 101,943142018658
30,47793028 484,767933158497 100,703807353
30,52993028 428,252410587181 99,4308698221851
30,58193028 245,162215984376 97,6108623947288
30,63393028 111,179578681807 96,0740308469078
30,68593028 219,359895393292 95,7471479547598
30,73793028 113,322895974636 94,4089593447302
30,78993028 140,264261892104 93,6825026733704
30,84193028 2,78396509902996 92,3619987933689
30,89393028 49,2850553170338 91,7847899091752
30,94593028 200,841058177494 91,7558055737611
30,99793028 276,150266490095 91,2703493774121
31,04993028 303,488409628217 90,7140256314162
31,10193028 202,572995676946 89,8601086775157
31,15393028 253,941877012196 89,4582146051365
31,20593028 276,740083241423 89,0392884485209
31,25793028 320,521885966424 88,7039543433934
31,30993028 442,864840413804 88,707391326053
31,36193028 561,532601449446 88,6920669248215
31,41393028 676,870284669757 88,7228704797937
31,46593028 800,167841265226 88,8397101296088
31,51793028 839,735734165022 88,7465087433381
31,56993028 827,304184141104 88,5663744791611
31,62193028 750,029017058774 88,2612081128706
31,67393028 709,814385006182 88,0966075825253
31,72593028 387,051106163545 87,1599768318627
31,77793028 325,282324173038 87,0088346597986
31,82993028 223,270360581066 86,7226759339185
31,88193028 304,762514287569 87,0940765874745
31,93393028 224,6139391405 87,0391314244685
31,98593028 250,557870414183 87,3502058420975
32,03793028 209,640740365458 87,447930799691
32,08993028 187,804288115694 87,7049896215749
32,14193028 106,418771463041 87,7512593763396
32,19393028 62,3584063931521 87,8916003219067
32,24593028 52,3475234369635 88,2287474336367
32,29793028 -1,35435948433314 88,4166564759836
32,34993028 -10,2214703777026 88,8707201807415
32,40193028 0 89,4120059158332
32,45393028 81,1747962847085 90,3569212057794
32,50593028 -31,0600161463099 90,5461910518529
32,55793028 76,7776608575996 91,6996795818867
32,60993028 22,7204686447076 92,0484721821938
32,66193028 156,18689331938 93,4724881198696
32,71393028 76,0048983319994 93,7923524793127
32,76593028 78,8126859635731 94,5883116336024
32,81793028 175,452633222302 95,9131230823065
32,86993028 288,261693923118 95,9979695237934
32,92193028 193,700702358384 94,4468315306268
32,97393028 280,076643111065 93,8195222853609
33,02593028 216,45674768029 92,4820648653772
33,07793028 275,260277699528 91,8287715577256
33,12993028 198,166087049855 90,5072839321621
33,18193028 145,83708322588 89,3695184326832
33,23393028 175,287170015612 88,642370245207
33,28593028 82,2934555185157 87,4601195548835
33,33793028 235,37284705651 87,3031468336167
33,38993028 242,505458018445 86,5932061063212
33,44193028 247,033501919132 85,8438961088548
33,49393028 340,547164894821 85,6619625829052
33,54593028 421,577913948416 85,2383137595454
33,59793028 580,738770134045 85,2011423488043
33,64993028 581,924728647587 84,5749924554551
33,70193028 616,90824886115 84,199737550825
33,75393028 523,826500055239 83,4278875882166
33,80593028 409,150819102559 82,5235857074834
33,85793028 405,496607540704 82,2146153526087
33,90993028 382,530127070411 81,8144724537532
33,96193028 349,56762472332 81,4024534882369
34,01393028 418,418816404426 81,3732682498787
34,06593028 531,004861035974 81,50985468699
34,11793028 842,668779016033 82,3043727460034
34,16993028 1096,73994526392 82,952281356943
34,22193028 1614,95288122528 84,4335601829254
34,27393028 2175,64477898934 86,1100987700759
34,32593028 2409,78165626959 86,874944471906
34,37793028 1893,92000540955 85,5014538188083
34,42993028 1357,19946123943 84,0860063941474
34,48193028 798,672350775658 82,4015463847102
34,53393028 621,89765021487 82,0280221043149
34,58593028 354,041370170071 81,2811562785649
34,63793028 297,448277881205 81,4159292723455
34,68993028 266,385413427891 81,5782678747717
34,74193028 268,561552546782 81,908022927282
34,79393028 321,332100948248 82,4822713761305
34,84593028 515,918796889679 83,6293660862963
34,89793028 704,732369599439 84,7894910379226
34,94993028 929,182086867437 86,2898693360144
35,00193028 1076,95626611492 87,5336443837962
35,05393028 1020,66860413317 88,0674606039781
35,10593028 659,033698609465 87,1277529720039
35,15793028 667,60894793617 87,8971468867499
35,20993028 476,73981925329 87,6788561346624
35,26193028 253,469723290397 87,2581966717708
35,31393028 223,106179539623 87,742029160866
35,36593028 108,005693996193 87,8810018023173
35,41793028 78,5414286863197 88,4527128249467
35,46993028 107,69557451138 88,8280878161093
35,52193028 7,28712333686281 87,271205119505
35,57393028 85,9530512642568 86,7239627128941
35,62593028 45,009770985213 85,573162272791
35,67793028 13,0635997660088 84,4553174269074
35,72993028 121,267579248467 84,1503224699115
35,78193028 35,8775603195727 82,8321772903737
35,83393028 0 81,9308990702814
35,88593028 67,6645383139407 81,4469670572363
35,93793028 22,5335958019514 80,4448426407538
35,98993028 5,58358206254934 79,804234421727
36,04193028 -0,395804344386761 79,0229405859198
36,09393028 -26,0245255826044 78,3116313782621
36,14593028 8,43927269833785 77,7722777897719
36,19793028 -14,8622815051945 77,0829892392319
36,24993028 47,6778188692942 76,8835879847342
36,30193028 -26,7586226889134 76,1666746753505
36,35393028 -16,534033513929 75,7085049601321
36,40593028 79,8688851300376 75,6279833304715
36,45793028 123,060667682767 75,4924322547099
36,50993028 18,2288259328334 74,6869295306929
36,56193028 153,966516895299 74,9207127558214
36,61393028 156,419342202247 74,6942291728662
36,66593028 96,0827996882181 74,2414872313125
36,71793028 126,905272551892 74,1625334773125
36,76993028 0 73,5882599008216
36,82193028 46,2985705565898 73,747306433907
36,87393028 -64,8831469252473 73,4012225682469
36,92593028 -67,0375541930734 73,4895395260811
36,97793028 -75,1437853553725 73,5712443463036
37,02993028 162,747470668427 74,5166436586901
37,08193028 42,0857302021718 74,34687058258
37,13393028 191,145270601813 75,111270392573
37,18593028 65,0321836671937 74,9208511720813
37,23793028 274,689461745415 76,0370490694174
37,28993028 211,841694066034 76,2375980294484
37,34193028 165,972842057019 76,4470348814048
37,39393028 225,505151702044 77,0888543073565
37,44593028 131,888994972639 77,1254937954081
37,49793028 109,48946438438 77,5355513970822
37,54993028 33,3957115733529 77,6601646857415
37,60193028 114,894948964497 78,6625201314854
37,65393028 108,926695080419 79,1643907733425
37,70593028 163,583721203044 80,0719749316106
37,75793028 262,116269512363 81,2051733116979
37,80993028 394,655196072472 82,6319484114683
37,86193028 318,358674486313 82,9225841256392
37,91393028 198,462412675178 83,0572118545107
37,96593028 186,756196075428 83,7769023470155
38,01793028 194,299717551629 84,6331057283474
38,06993028 232,924148941907 85,6933852878384
38,12193028 112,128482520315 84,2671380763786
38,17393028 113,205036472985 83,4567236102941
38,22593028 49,5194467146976 82,2637229044649
38,27793028 -19,4326954962467 81,1423920725531
38,32993028 0 80,5055630783805
38,38193028 -45,7098169408218 79,5307278224316
38,43393028 -2,30805858315489 79,0622509233578
38,48593028 92,2680709595184 78,8989386861288
38,53793028 81,7335268887723 78,1947672387226
38,58993028 241,918015925034 78,327342905075
38,64193028 118,190635290848 77,2086582302097
38,69393028 89,2775787944111 76,5220607377055
38,74593028 134,080916612305 76,2883849765235
38,79793028 236,750427679247 76,2197320376143
38,84993028 356,856612461378 76,248207920643
38,90193028 432,009899070295 76,090420266987
38,95393028 580,606078729429 76,2902514360791
39,00593028 607,741529850024 76,0700555883418
39,05793028 381,961305382541 74,9214001732885
39,10993028 320,131499406134 74,4632913437754
39,16193028 244,44220336232 73,976876207428
39,21393028 132,76362198062 73,4300007740791
39,26593028 -4,54747350886464E-13 72,863799590312
39,31793028 -7,27937479121329 72,9163587596624
39,36993028 -78,5888914080465 72,7546917031907
39,42193028 -113,566453641884 72,7740814927853
39,47393028 -127,21135878825 72,8999649739342
39,52593028 -106,371122477286 73,1701349565417
39,57793028 -183,106213472747 73,15689608514
39,62993028 -221,542727073097 73,2224276850538
39,68193028 9,03734794353386 74,4451514720644
39,73393028 143,395638664207 75,2526042745096
39,78593028 274,346097649634 76,0827570859737
39,83793028 287,13638068176 76,7421781698304
39,88993028 228,026702605717 76,9359829046035
39,94193028 82,9014364144014 76,9488433299118
39,96793028 6,03477572559859 76,8553308674895