File: 2021/xrd/cif_files/1447556.csv
GENERAL$,
1,0
1.08,0.0299
1.16,0.02704
1.24,0.02473
1.32,0.02284
1.4,0.02129
1.48,0.02001
1.56,0.01895
1.64,0.01809
1.72,0.0174
1.8,0.01685
1.88,0.01644
1.96,0.01616
2.04,0.01601
2.12,0.01599
2.2,0.01611
2.28,0.01641
2.36,0.0169
2.44,0.01764
2.52,0.01874
2.6,0.02032
2.68,0.02267
2.76,0.02628
2.84,0.03217
2.92,0.04283
3,0.0654
3.08,0.12904
3.16,0.47321
3.24,38.6124
3.32,0.3472
3.4,0.09995
3.48,0.05231
3.56,0.03655
3.64,0.03038
3.72,0.0283
3.8,0.02858
3.88,0.0307
3.96,0.03478
4.04,0.04152
4.12,0.05251
4.2,0.07139
4.28,0.10731
4.36,0.18889
4.44,0.44801
4.52,2.42968
4.6,29.85603
4.68,0.68527
4.76,0.21902
4.84,0.1078
4.92,0.06598
5,0.04674
5.08,0.03732
5.16,0.03342
5.24,0.03397
5.32,0.04032
5.4,0.06007
5.48,0.13245
5.56,0.97684
5.64,2.4721
5.72,0.14359
5.8,0.05813
5.88,0.03704
5.96,0.03077
6.04,0.03102
6.12,0.03676
6.2,0.05173
6.28,0.0913
6.36,0.24271
6.44,4.49373
6.52,1.54339
6.6,0.18209
6.68,0.07129
6.76,0.03979
6.84,0.027
6.92,0.02094
7,0.01801
7.08,0.01703
7.16,0.01865
7.24,0.15248
7.32,0.02143
7.4,0.0236
7.48,0.02967
7.56,0.04074
7.64,0.06253
7.72,0.11368
7.8,0.28485
7.88,1.95532
7.96,10.84083
8.04,0.37743
8.12,0.12589
8.2,0.06286
8.28,0.03841
8.36,0.02686
8.44,0.02182
8.52,0.03385
8.6,0.07547
8.68,0.01659
8.76,0.01596
8.84,0.01901
8.92,0.02739
9,0.05313
9.08,0.19356
9.16,8.97259
9.24,0.18553
9.32,0.0511
9.4,0.02865
9.48,0.02529
9.56,0.03687
9.64,0.12213
9.72,4.48114
9.8,0.09956
9.88,0.02881
9.96,0.01586
10.04,0.01276
10.12,0.01684
10.2,0.11143
10.28,0.23017
10.36,0.0158
10.44,0.009
10.52,0.00828
10.6,0.01099
10.68,0.03257
10.76,0.51303
10.84,0.021
10.92,0.01661
11,0.02441
11.08,0.05394
11.16,0.26646
11.24,4.58683
11.32,0.11568
11.4,0.03407
11.48,0.01681
11.56,0.01192
11.64,0.03511
11.72,0.07296
11.8,0.0061
11.88,0.00352
11.96,0.00257
12.04,0.00208
12.12,0.00182
12.2,0.00164
12.28,0.00169
12.36,0.00215
12.44,0.00391
12.52,0.0584
12.6,0.03058
12.68,0.00424
12.76,0.00396
12.84,0.00728
12.92,0.0553
13,0.20273
13.08,0.00912
13.16,0.00471
13.24,0.00464
13.32,0.01471
13.4,0.05036
13.48,0.00835
13.56,0.01282
13.64,0.03315
13.72,0.54408
13.8,0.52032
13.88,0.03223
13.96,0.01745
14.04,0.02905
14.12,1.01366
14.2,0.06797
14.28,0.0129
14.36,0.00791
14.44,0.01628
14.52,0.1646
14.6,0.00832
14.68,0.00413
14.76,0.00537
14.84,0.11457
14.92,0.02268
15,0.00365
15.08,0.00337
15.16,0.01236
15.24,0.09179
15.32,0.00441
15.4,0.00258
15.48,0.00391
15.56,0.05485
15.64,0.00551
15.72,0.00623
15.8,0.01768
15.88,0.6445
15.96,0.06204
16.04,0.01157
16.12,0.01411
16.2,0.31345
16.28,0.09631
16.36,0.00866
16.44,0.00488
16.52,0.032
16.6,0.01725
16.68,0.00421
16.76,0.00844
16.84,0.2056
16.92,0.0771
17,0.00609
17.08,0.00366
17.16,0.05399
17.24,0.0085
17.32,0.00146
17.4,8.9E-4
17.48,0.00313
17.56,7.5E-4
17.64,6.2E-4
17.72,6.4E-4
17.8,7.7E-4
17.88,0.00104
17.96,0.00184
18.04,0.01312
18.12,0.03463
18.2,0.00422
18.28,0.0091
18.36,0.27473
18.44,0.03424
18.52,0.00817
18.6,0.02288
18.68,0.14454
18.76,0.01377
18.84,0.01441
18.92,0.32259
19,0.12126
19.08,0.00983
19.16,0.01029
19.24,0.04995
19.32,0.00593
19.4,0.00467
19.48,0.07345
19.56,0.01843
19.64,0.00735
19.72,0.04457
19.8,0.18254
19.88,0.01059
19.96,0.0043
20.04,0.01221
20.12,0.00371
20.2,0.0061
20.28,0.13926
20.36,0.05361
20.44,0.00586
20.52,0.02106
20.6,0.0562
20.68,0.00524
20.76,0.00861
20.84,0.03721
20.92,0.00958
21,0.02452
21.08,0.3459
21.16,0.03722
21.24,0.01387
21.32,0.20308
21.4,0.03273
21.48,0.01037
21.56,0.18255
21.64,0.05851
21.72,0.00655
21.8,0.04614
21.88,0.02891
21.96,0.003
22.04,0.00229
22.12,0.0028
22.2,0.00579
22.28,0.09158
22.36,0.09911
22.44,0.00748
22.52,0.03709
22.6,0.03786
22.68,0.00957
22.76,0.14778
22.84,0.11393
22.92,0.01067
23,0.08204
23.08,0.04367
23.16,0.02095
23.24,0.45228
23.32,0.12597
23.4,0.03939
23.48,0.6061
23.56,0.1031
23.64,0.01643
23.72,0.03842
23.8,0.01011
23.88,0.0139
23.96,0.03782
24.04,0.01229
24.12,0.07672
24.2,0.13722
24.28,0.01131
24.36,0.00525
24.44,0.00555
24.52,0.01395
24.6,0.22001
24.68,0.0477
24.76,0.02592
24.84,0.08596
24.92,0.01687
25,0.02228
25.08,0.02969
25.16,0.00994
25.24,0.1589
25.32,0.05522
25.4,0.02355
25.48,0.10228
25.56,0.02015
25.64,0.00455
25.72,0.00286
25.8,0.00393
25.88,0.05012
25.96,0.01459
26.04,0.00348
26.12,0.00501
26.2,0.00466
26.28,0.06909
26.36,0.04388
26.44,0.01093
26.52,0.04008
26.6,0.01629
26.68,0.13005
26.76,0.12471
26.84,0.02125
26.92,0.10459
27,0.03037
27.08,0.07331
27.16,0.07421
27.24,0.01149
27.32,0.04018
27.4,0.01285
27.48,0.02415
27.56,0.02235
27.64,0.00661
27.72,0.01942
27.8,0.01122
27.88,0.10138
27.96,0.0754
28.04,0.05033
28.12,0.11777
28.2,0.03593
28.28,0.12099
28.36,0.05514
28.44,0.0468
28.52,0.0535
28.6,0.02076
28.68,0.09776
28.76,0.03281
28.84,0.00576
28.92,0.00543
29,0.0237
29.08,0.03708
29.16,0.01189
29.24,0.01496
29.32,0.0129
29.4,0.13057
29.48,0.09578
29.56,0.07277
29.64,0.09883
29.72,0.03862
29.8,0.11441
29.88,0.0452
29.96,0.0176
30.04,0.01262
30.12,0.04956
30.2,0.04425
30.28,0.00934
30.36,0.00544
30.44,0.01132
30.52,0.11359
30.6,0.05193
30.68,0.03001
30.76,0.02056
30.84,0.05848
30.92,0.04743
31,0.01874
31.08,0.0209
31.16,0.01122
31.24,0.01883
31.32,0.01606
31.4,0.13082
31.48,0.06732
31.56,0.03099
31.64,0.0176
31.72,0.00403
31.8,0.00469
31.88,0.02508
31.96,0.02841
32.04,0.01655
32.12,0.01963
32.2,0.03337
32.28,0.16227
32.36,0.08752
32.44,0.03634
32.52,0.02603
32.6,0.14018
32.68,0.08379
32.76,0.21047
32.84,0.11276
32.92,0.04487
33,0.02504
33.08,0.03979
33.16,0.02738
33.24,0.05414
33.32,0.03918
33.4,0.01495
33.48,0.00599
33.56,0.01399
33.64,0.01949
33.72,0.02625
33.8,0.03618
33.88,0.02319
33.96,0.01047
34.04,0.03115
34.12,0.09612
34.2,0.06898
34.28,0.04086
34.36,0.02571
34.44,0.00474
34.52,0.00675
34.6,0.02406
34.68,0.01683
34.76,0.00365
34.84,0.00428
34.92,0.01035
35,0.01847
35.08,0.05827
35.16,0.0542
35.24,0.06271
35.32,0.04945
35.4,0.02389
35.48,0.0309
35.56,0.04672
35.64,0.03911
35.72,0.01568
35.8,0.0296
35.88,0.03298
35.96,0.0241
36.04,0.00439
36.12,0.00855
36.2,0.00707
36.28,0.01146
36.36,0.00851
36.44,0.05015
36.52,0.02391
36.6,0.02774
36.68,0.01584
36.76,0.11577
36.84,0.04683
36.92,0.00938
37,0.00657
37.08,0.04028
37.16,0.02522
37.24,0.00458
37.32,0.00558
37.4,0.01134
37.48,0.03447
37.56,0.03865
37.64,0.04367
37.72,0.0138
37.8,0.0498
37.88,0.02296
37.96,0.07144
38.04,0.02586
38.12,0.00967
38.2,0.01369
38.28,0.07803
38.36,0.05849
38.44,0.00831
38.52,0.02032
38.6,0.02067
38.68,0.0582
38.76,0.02428
38.84,0.07758
38.92,0.02487
39,0.0092
39.08,0.00354
39.16,0.00245
39.24,0.00232
39.32,0.00276
39.4,0.01171
39.48,0.00967
39.56,0.05375
39.64,0.02724
39.72,0.12348
39.8,0.0659
39.88,0.03984
39.96,0.04658
40.04,0.02175
40.12,0.0724
40.2,0.02414
40.28,0.03339
40.36,0.01586
40.44,0.03638
40.52,0.04086
40.6,0.02331
40.68,0.04218
40.76,0.01247
40.84,0.04011
40.92,0.01459
41,0.01244
41.08,0.01491
41.16,0.01036
41.24,0.01432
41.32,0.01229
41.4,0.1157
41.48,0.04557
41.56,0.01459
41.64,0.05064
41.72,0.03006
41.8,0.04162
41.88,0.00774
41.96,0.00951
42.04,0.01002
42.12,0.00877
42.2,0.03131
42.28,0.01351
42.36,0.04702
42.44,0.03848
42.52,0.04479
42.6,0.05581
42.68,0.00906
42.76,0.02164
42.84,0.01259
42.92,0.01571
43,0.03972
43.08,0.01984
43.16,0.08988
43.24,0.03631
43.32,0.03707
43.4,0.10274
43.48,0.0394
43.56,0.10379
43.64,0.02866
43.72,0.0166
43.8,0.0869
43.88,0.03067
43.96,0.03807
44.04,0.0163
44.12,0.02194
44.2,0.13212
44.28,0.03455
44.36,0.03419
44.44,0.0208
44.52,0.0165
44.6,0.05851
44.68,0.01501
44.76,0.01509
44.84,0.01341
44.92,0.00482
45,0.00576
45.08,0.01003
45.16,0.01296
45.24,0.03751
45.32,0.01735
45.4,0.04719
45.48,0.04521
45.56,0.01469
45.64,0.0336
45.72,0.00872
45.8,0.00454
45.88,0.00572
45.96,0.00303
46.04,0.0046
46.12,0.02926
46.2,0.01146
46.28,0.01954
46.36,0.01203
46.44,0.01043
46.52,0.03451
46.6,0.02338
46.68,0.03405
46.76,0.08927
46.84,0.03351
46.92,0.07109
47,0.06726
47.08,0.01985
47.16,0.02901
47.24,0.02289
47.32,0.0139
47.4,0.03629
47.48,0.02008
47.56,0.01874
47.64,0.06585
47.72,0.01554
47.8,0.01677
47.88,0.06227
47.96,0.025
48.04,0.04
48.12,0.02498
48.2,0.00602
48.28,0.00419
48.36,0.01438
48.44,0.00762
48.52,0.0181
48.6,0.02283
48.68,0.01622
48.76,0.05251
48.84,0.02864
48.92,0.01153
49,0.01189
49.08,0.01168
49.16,0.00545
49.24,0.00977
49.32,0.00639
49.4,0.00355
49.48,0.00744
49.56,0.00434
49.64,0.00268
49.72,0.00407
49.8,0.01595
49.88,0.00713
49.96,0.01422
50.04,0.01701
50.12,0.00926
50.2,0.02368
50.28,0.02823
50.36,0.01499
50.44,0.03434
50.52,0.04417
50.6,0.01527
50.68,0.02597
50.76,0.03246
50.84,0.01124
50.92,0.02023
51,0.01671
51.08,0.01753
51.16,0.02479
51.24,0.03117
51.32,0.01298
51.4,0.01451
51.48,0.04684
51.56,0.01086
51.64,0.01218
51.72,0.00343
51.8,0.0072
51.88,0.00461
51.96,0.01055
52.04,0.00676
52.12,0.00475
52.2,0.00747
52.28,0.01469
52.36,0.00719
52.44,0.01008
52.52,0.01182
52.6,0.01362
52.68,0.00952
52.76,0.01266
52.84,0.01484
52.92,0.00907
53,0.02045
53.08,0.01211
53.16,0.00679
53.24,0.00863
53.32,0.03109
53.4,0.00801
53.48,0.01356
53.56,0.01313
53.64,0.01637
53.72,0.01934
53.8,0.03408
53.88,0.0309
53.96,0.04217
54.04,0.03383
54.12,0.0408
54.2,0.01563
54.28,0.01744
54.36,0.03095
54.44,0.02068
54.52,0.02461
54.6,0.02562
54.68,0.07082
54.76,0.02328
54.84,0.03389
54.92,0.03308
55,0.03575
55.08,0.01931
55.16,0.01738
55.24,0.00947
55.32,0.01667
55.4,0.01154
55.48,0.02132
55.56,0.02686
55.64,0.01361
55.72,0.0156
55.8,0.01735
55.88,0.01274
55.96,0.0124
56.04,0.01268
56.12,0.01743
56.2,0.03179
56.28,0.01496
56.36,0.02281
56.44,0.01447
56.52,0.01134
56.6,0.01079
56.68,0.01352
56.76,0.01685
56.84,0.00884
56.92,0.01014
57,0.00513
57.08,0.01271
57.16,0.00513
57.24,0.00999
57.32,0.01222
57.4,0.00888
57.48,0.01571
57.56,0.01942
57.64,0.02389
57.72,0.01705
57.8,0.01429
57.88,0.01527
57.96,0.04064
58.04,0.01286
58.12,0.02603
58.2,0.01898
58.28,0.02876
58.36,0.01228
58.44,0.01665
58.52,0.01184
58.6,0.02279
58.68,0.00793
58.76,0.01264
58.84,0.00622
58.92,0.00718
59,0.01192
59.08,0.0122
59.16,0.01965
59.24,0.03074
59.32,0.01245
59.4,0.0159
59.48,0.00627
59.56,0.00744
59.64,0.00729
59.72,0.00566
59.8,0.00643
59.88,0.0184
59.96,0.00534
60.04,0.01459
60.12,0.0091
60.2,0.00681
60.28,0.01731
60.36,0.00565
60.44,0.00907
60.52,0.00751
60.6,0.00379
60.68,0.00614
60.76,0.00666
60.84,0.01252
60.92,0.01114
61,0.02275
61.08,0.02239
61.16,0.03177
61.24,0.02518
61.32,0.03946
61.4,0.0202
61.48,0.02051
61.56,0.01675
61.64,0.01163
61.72,0.01192
61.8,0.01149
61.88,0.0176
61.96,0.02875
62.04,0.01282
62.12,0.01742
62.2,0.01048
62.28,0.01377
62.36,0.02096
62.44,0.01205
62.52,0.01315
62.6,0.0135
62.68,0.01035
62.76,0.01903
62.84,0.01469
62.92,0.0167
63,0.01626
63.08,0.01152
63.16,0.00937
63.24,0.00658
63.32,0.00795
63.4,0.00666
63.48,0.01089
63.56,0.00717
63.64,0.0064
63.72,0.00386
63.8,0.0051
63.88,0.00325
63.96,0.0087
64.04,0.01228
64.12,0.01085
64.2,0.02138
64.28,0.01075
64.36,0.00951
64.44,0.00662
64.52,0.01033
64.6,0.00468
64.68,0.00663
64.76,0.00644
64.84,0.01086
64.92,0.01277
65,0.01464
65.08,0.01211
65.16,0.01038
65.24,0.01055
65.32,0.00635
65.4,0.01306
65.48,0.00485
65.56,0.0063
65.64,0.01021
65.72,0.01338
65.8,0.00675
65.88,0.00735
65.96,0.00476
66.04,0.00556
66.12,0.0048
66.2,0.01194
66.28,0.00516
66.36,0.00646
66.44,0.00963
66.52,0.00522
66.6,0.01124
66.68,0.00445
66.76,0.00355
66.84,0.00297
66.92,0.00163
67,0.00452
67.08,0.00231
67.16,0.00371
67.24,0.00544
67.32,0.00751
67.4,0.01445
67.48,0.01327
67.56,0.01009
67.64,0.00764
67.72,0.00774
67.8,0.01297
67.88,0.00512
67.96,0.00659
68.04,0.00503
68.12,0.00387
68.2,0.00806
68.28,0.00769
68.36,0.00777
68.44,0.00561
68.52,0.00414
68.6,0.00567
68.68,0.00558
68.76,0.00565
68.84,0.00564
68.92,0.00809
69,0.01346
69.08,0.00628
69.16,0.01074
69.24,0.00541
69.32,0.00365
69.4,0.00405
69.48,0.00762
69.56,0.00689
69.64,0.00579
69.72,0.00564
69.8,0.0049
69.88,0.00364
69.96,0.00353
70.04,0.00215
70.12,0.00296
70.2,0.00203
70.28,0.00239
70.36,0.00562
70.44,0.00786
70.52,0.00548
70.6,0.00488
70.68,0.0047
70.76,0.00457
70.84,0.00433
70.92,0.00597
71,0.00358
71.08,0.00376
71.16,0.00346
71.24,0.00362
71.32,0.00635
71.4,0.00309
71.48,0.00526
71.56,0.00274
71.64,0.00208
71.72,0.00357
71.8,0.00483
71.88,0.00569
71.96,0.00317
72.04,0.00317
72.12,0.00293
72.2,0.00217
72.28,0.00292
72.36,0.00187
72.44,0.00301
72.52,0.00171
72.6,0.00221
72.68,0.00352
72.76,0.00246
72.84,0.00269
72.92,0.00271
73,0.00305
73.08,0.00214
73.16,0.00215
73.24,0.00385
73.32,0.00139
73.4,0.00248
73.48,0.00284
73.56,0.0024
73.64,0.0027
73.72,0.00377
73.8,0.00448
73.88,0.00357
73.96,0.00236
74.04,0.00211
74.12,0.00314
74.2,0.00395
74.28,0.00267
74.36,0.00565
74.44,0.00315
74.52,0.00232
74.6,0.00223
74.68,0.00198
74.76,0.00276
74.84,0.00146
74.92,0.00394
75,0.00307
75.08,0.00251
75.16,0.00333
75.24,0.00333
75.32,0.00268
75.4,0.00248
75.48,0.00233
75.56,0.00219
75.64,0.00238
75.72,0.00274
75.8,0.00284
75.88,0.00245
75.96,0.00209
76.04,0.00385
76.12,0.00219
76.2,0.00291
76.28,0.00437
76.36,0.00201
76.44,0.00455
76.52,0.00272
76.6,0.00242
76.68,0.00281
76.76,0.00276
76.84,0.00305
76.92,0.00315
77,0.00557
77.08,0.00278
77.16,0.00292
77.24,0.00354
77.32,0.00221
77.4,0.00259
77.48,0.00426
77.56,0.00409
77.64,0.00243
77.72,0.00442
77.8,0.00324
77.88,0.0021
77.96,0.00339
78.04,0.0021
78.12,0.00302
78.2,0.00371
78.28,0.00285
78.36,0.00414
78.44,0.00396
78.52,0.0022
78.6,0.00272
78.68,0.00316
78.76,0.00182
78.84,0.00402
78.92,0.00519
79,0.00469
79.08,0.00484
79.16,0.00408
79.24,0.00583
79.32,0.0027
79.4,0.0034
79.48,0.00341
79.56,0.00191
79.64,0.00296
79.72,0.00398
79.8,0.00544
79.88,0.00237
79.96,0.00296
80.04,0.00474
80.12,0.00279
80.2,0.00342
80.28,0.00529
80.36,0.00398
80.44,0.00291
80.52,0.00455
80.6,0.00254
80.68,0.00159
80.76,0.00242
80.84,0.00196
80.92,0.00238
81,0.00339
81.08,0.00612
81.16,0.0049
81.24,0.00546
81.32,0.00674
81.4,0.00619
81.48,0.00581
81.56,0.00387
81.64,0.00554
81.72,0.00762
81.8,0.00452
81.88,0.00458
81.96,0.00565
82.04,0.00392
82.12,0.00272
82.2,0.00346
82.28,0.00228
82.36,0.00291
82.44,0.00345
82.52,0.00371
82.6,0.00399
82.68,0.00365
82.76,0.00457
82.84,0.00421
82.92,0.00412
83,0.00322
83.08,0.004
83.16,0.00411
83.24,0.00296
83.32,0.00426
83.4,0.00707
83.48,0.00432
83.56,0.00296
83.64,0.00561
83.72,0.00554
83.8,0.00459
83.88,0.0044
83.96,0.00436
84.04,0.00367
84.12,0.00336
84.2,0.00534
84.28,0.00332
84.36,0.00527
84.44,0.00531
84.52,0.00316
84.6,0.00439
84.68,0.00437
84.76,0.00317
84.84,0.00406
84.92,0.00404
85,0.00272
85.08,0.00279
85.16,0.003
85.24,0.00243
85.32,0.00345
85.4,0.00397
85.48,0.00292
85.56,0.00521
85.64,0.00458
85.72,0.00394
85.8,0.00528
85.88,0.00537
85.96,0.0036
86.04,0.00563
86.12,0.00648
86.2,0.00429
86.28,0.00421
86.36,0.00451
86.44,0.00368
86.52,0.00268
86.6,0.00356
86.68,0.00392
86.76,0.00383
86.84,0.00521
86.92,0.00675
87,0.00534
87.08,0.00378
87.16,0.00442
87.24,0.00452
87.32,0.00304
87.4,0.0029
87.48,0.00388
87.56,0.00382
87.64,0.00428
87.72,0.00519
87.8,0.00529
87.88,0.00445
87.96,0.0038
88.04,0.00515
88.12,0.00405
88.2,0.00386
88.28,0.00452
88.36,0.00409
88.44,0.00395
88.52,0.00543
88.6,0.0043
88.68,0.00343
88.76,0.00399
88.84,0.00307
88.92,0.0032
89,0.00349
89.08,0.0036
89.16,0.00428
89.24,0.00422
89.32,0.00361
89.4,0.00287
89.48,0.00272
89.56,0.00241
89.64,0.00248
89.72,0.00306
89.8,0.00358
89.88,0.00356
89.96,0.00365
90.04,0.00364
90.12,0.0041
90.2,0.00486
90.28,0.00385
90.36,0.00272
90.44,0.00348
90.52,0.00371
90.6,0.00308
90.68,0.00401
90.76,0.00511
90.84,0.00341
90.92,0.00227
91,0.00272
91.08,0.0036
91.16,0.00403
91.24,0.00518
91.32,0.00506
91.4,0.00337
91.48,0.00342
91.56,0.00399
91.64,0.00403
91.72,0.00381
91.8,0.00454
91.88,0.00483
91.96,0.00455
92.04,0.0042
92.12,0.00537
92.2,0.00447
92.28,0.00263
92.36,0.0023
92.44,0.00323
92.52,0.00232
92.6,0.00276
92.68,0.00272
92.76,0.00194
92.84,0.00176
92.92,0.00287
93,0.00338
93.08,0.00282
93.16,0.00427
93.24,0.00323
93.32,0.00251
93.4,0.00254
93.48,0.00319
93.56,0.00262
93.64,0.00229
93.72,0.00228
93.8,0.00176
93.88,0.00164
93.96,0.00174
94.04,0.00247
94.12,0.00308
94.2,0.00422
94.28,0.00524
94.36,0.00521
94.44,0.00378
94.52,0.00416
94.6,0.00448
94.68,0.00334
94.76,0.00273
94.84,0.00351
94.92,0.00386
95,0.00318
95.08,0.00369
95.16,0.00343
95.24,0.0026
95.32,0.00296
95.4,0.00292
95.48,0.00252
95.56,0.00252
95.64,0.00284
95.72,0.00345
95.8,0.00346
95.88,0.00347
95.96,0.00293
96.04,0.00293
96.12,0.00271
96.2,0.00316
96.28,0.00402
96.36,0.00277
96.44,0.00256
96.52,0.00255
96.6,0.0029
96.68,0.0021
96.76,0.00218
96.84,0.00234
96.92,0.00185
97,0.00216
97.08,0.00279
97.16,0.00324
97.24,0.00286
97.32,0.00329
97.4,0.00372
97.48,0.00333
97.56,0.00289
97.64,0.00344
97.72,0.00371
97.8,0.00342
97.88,0.0031
97.96,0.00282
98.04,0.00252
98.12,0.00249
98.2,0.0019
98.28,0.00182
98.36,0.0022
98.44,0.0024
98.52,0.00188
98.6,0.00206
98.68,0.0027
98.76,0.00231
98.84,0.00208
98.92,0.00239
99,0.00307
99.08,0.0027
99.16,0.0034
99.24,0.00448
99.32,0.00388
99.4,0.00259
99.48,0.00269
99.56,0.00372
99.64,0.00279
99.72,0.0018
99.8,0.00165
99.88,0.00197
99.96,0.00249
100.04,0.00256
100.12,0.00259
100.2,0.00242
100.28,0.0028
100.36,0.00271
100.44,0.00227
100.52,0.00206
100.6,0.00174
100.68,0.00185
100.76,0.00187
100.84,0.00275
100.92,0.00305
101,0.00256
101.08,0.00182
101.16,0.00169
101.24,0.00213
101.32,0.00203
101.4,0.00211
101.48,0.00197
101.56,0.00198
101.64,0.00225
101.72,0.00214
101.8,0.00229
101.88,0.00187
101.96,0.00216
102.04,0.00183
102.12,0.00147
102.2,0.00156
102.28,0.0018
102.36,0.00175
102.44,0.00135
102.52,0.00149
102.6,0.00151
102.68,0.00147
102.76,0.00182
102.84,0.00247
102.92,0.00337
103,0.0022
103.08,0.00187
103.16,0.00246
103.24,0.00328
103.32,0.00328
103.4,0.00314
103.48,0.00359
103.56,0.00274
103.64,0.0022
103.72,0.00239
103.8,0.00261
103.88,0.00223
103.96,0.00196
104.04,0.00157
104.12,0.00148
104.2,0.00183
104.28,0.00226
104.36,0.00231
104.44,0.00247
104.52,0.00286
104.6,0.0035
104.68,0.00295
104.76,0.00264
104.84,0.00284
104.92,0.0029
105,0.00237
105.08,0.00209
105.16,0.00221
105.24,0.00207
105.32,0.00209
105.4,0.00236
105.48,0.00231
105.56,0.00243
105.64,0.00176
105.72,0.00202
105.8,0.00198
105.88,0.00206
105.96,0.00242
106.04,0.00241
106.12,0.00259
106.2,0.00211
106.28,0.00202
106.36,0.00199
106.44,0.00205
106.52,0.0023
106.6,0.00175
106.68,0.00142
106.76,0.00129
106.84,0.00144
106.92,0.00154
107,0.00139
107.08,0.00107
107.16,0.00104
107.24,0.0014
107.32,0.00162
107.4,0.0019
107.48,0.0023
107.56,0.00206
107.64,0.00206
107.72,0.00176
107.8,0.00172
107.88,0.00189
107.96,0.00221
108.04,0.00257
108.12,0.00176
108.2,0.00158
108.28,0.0017
108.36,0.00177
108.44,0.00168
108.52,0.00144
108.6,0.0018
108.68,0.00144
108.76,0.00102
108.84,9E-4
108.92,9.7E-4
109,0.00121
109.08,0.00116
109.16,0.00154
109.24,0.00164
109.32,0.0017
109.4,0.00208
109.48,0.00201
109.56,0.00178
109.64,0.0018
109.72,0.00198
109.8,0.00219
109.88,0.00225
109.96,0.00222
110.04,0.00234
110.12,0.00222
110.2,0.00188
110.28,0.00188
110.36,0.00233
110.44,0.00218
110.52,0.00197
110.6,0.002
110.68,0.00204
110.76,0.00198
110.84,0.00194
110.92,0.00225
111,0.00207
111.08,0.00179
111.16,0.00161
111.24,0.0016
111.32,0.00198
111.4,0.00176
111.48,0.00161
111.56,0.00162
111.64,0.00138
111.72,0.00127
111.8,0.00108
111.88,0.00117
111.96,0.00127
112.04,0.0012
112.12,0.00127
112.2,0.00112
112.28,0.00146
112.36,0.00186
112.44,0.00185
112.52,0.00158
112.6,0.00138
112.68,0.00173
112.76,0.00181
112.84,0.00171
112.92,0.00166
113,0.00146
113.08,0.00147
113.16,0.00134
113.24,0.00112
113.32,0.00115
113.4,0.00105
113.48,0.00115
113.56,0.00108
113.64,1E-3
113.72,0.00115
113.8,0.00131
113.88,0.0014
113.96,0.0014
114.04,0.00157
114.12,0.00181
114.2,0.00168
114.28,0.00152
114.36,0.00135
114.44,0.00155
114.52,0.00185
114.6,0.0015
114.68,0.00139
114.76,0.0014
114.84,0.00135
114.92,0.00134
115,0.00126
115.08,0.0015
115.16,0.00144
115.24,0.00133
115.32,0.00138
115.4,0.00139
115.48,0.00163
115.56,0.00215
115.64,0.00254
115.72,0.00296
115.8,0.00336
115.88,0.00349
115.96,0.00334
116.04,0.00311
116.12,0.00303
116.2,0.00343
116.28,0.00363
116.36,0.00357
116.44,0.00355
116.52,0.00355
116.6,0.00279
116.68,0.00259
116.76,0.00281
116.84,0.0031
116.92,0.0034
117,0.0032
117.08,0.00253
117.16,0.00237
117.24,0.00267
117.32,0.0029
117.4,0.00284
117.48,0.00245
117.56,0.00192
117.64,0.00164
117.72,0.00175
117.8,0.00204
117.88,0.00206
117.96,0.00167
118.04,0.00142
118.12,0.00159
118.2,0.00168
118.28,0.00167
118.36,0.00183
118.44,0.00153
118.52,0.00137
118.6,0.00148
118.68,0.00139
118.76,0.00142
118.84,0.00138
118.92,0.00109
119,0.00103
119.08,0.00107
119.16,0.00122
119.24,0.00144
119.32,0.00157
119.4,0.0017
119.48,0.00163
119.56,0.00162
119.64,0.00178
119.72,0.00182
119.8,0.00163
119.88,0.00148
119.96,0.00146
119.99,0.00152