File: 2021/xrd/cif_files/ja408084j_si_004.csv
GENERAL$,
1,0
1.08,0.02952
1.16,0.0267
1.24,0.02442
1.32,0.02255
1.4,0.02101
1.48,0.01975
1.56,0.0187
1.64,0.01785
1.72,0.01716
1.8,0.01662
1.88,0.01621
1.96,0.01593
2.04,0.01578
2.12,0.01575
2.2,0.01586
2.28,0.01614
2.36,0.01661
2.44,0.01732
2.52,0.01836
2.6,0.01986
2.68,0.02207
2.76,0.02544
2.84,0.03088
2.92,0.04052
3,0.06031
3.08,0.11282
3.16,0.35513
3.24,34.66994
3.32,0.48066
3.4,0.11624
3.48,0.05675
3.56,0.03807
3.64,0.03079
3.72,0.02815
3.8,0.02801
3.88,0.02973
3.96,0.03332
4.04,0.03931
4.12,0.04905
4.2,0.0655
4.28,0.0959
4.36,0.16157
4.44,0.3502
4.52,1.39859
4.6,95.53335
4.68,1.00353
4.76,0.26871
4.84,0.1232
4.92,0.07234
5,0.0497
5.08,0.03863
5.16,0.03366
5.24,0.03314
5.32,0.03772
5.4,0.05258
5.48,0.1015
5.56,0.41104
5.64,15.7662
5.72,0.22022
5.8,0.07141
5.88,0.04066
5.96,0.03118
6.04,0.02934
6.12,0.03268
6.2,0.043
6.28,0.06929
6.36,0.15466
6.44,0.78145
6.52,13.08409
6.6,0.26828
6.68,0.08639
6.76,0.0443
6.84,0.02865
6.92,0.02152
7,0.01807
7.08,0.01672
7.16,0.01744
7.24,0.06716
7.32,0.02534
7.4,0.02219
7.48,0.02675
7.56,0.03547
7.64,0.05191
7.72,0.08744
7.8,0.18696
7.88,0.70006
7.96,42.09201
8.04,0.75696
8.12,0.18264
8.2,0.08068
8.28,0.04604
8.36,0.03082
8.44,0.0237
8.52,0.02496
8.6,0.442
8.68,0.02186
8.76,0.01595
8.84,0.01687
8.92,0.02176
9,0.03588
9.08,0.08997
9.16,1.37424
9.24,0.90058
9.32,0.07816
9.4,0.03392
9.48,0.02456
9.56,0.02805
9.64,0.05855
9.72,0.90153
9.8,0.52669
9.88,0.04672
9.96,0.01962
10.04,0.01252
10.12,0.01126
10.2,0.01986
10.28,0.70067
10.36,0.02223
10.44,0.00872
10.52,0.00706
10.6,0.00798
10.68,0.01391
10.76,0.26763
10.84,0.05621
10.92,0.01539
11,0.01731
11.08,0.03021
11.16,0.08506
11.24,2.30866
11.32,0.5359
11.4,0.05759
11.48,0.02297
11.56,0.01421
11.64,0.01702
11.72,0.49796
11.8,0.02146
11.88,0.00618
11.96,0.00358
12.04,0.00256
12.12,0.00205
12.2,0.00179
12.28,0.00163
12.36,0.00183
12.44,0.00256
12.52,0.00633
12.6,0.19581
12.68,0.00832
12.76,0.00399
12.84,0.00512
12.92,0.01322
13,0.50623
13.08,0.04088
13.16,0.00742
13.24,0.00445
13.32,0.00515
13.4,0.07852
13.48,0.0122
13.56,0.00741
13.64,0.01269
13.72,0.04005
13.8,1.67485
13.88,0.08677
13.96,0.01965
14.04,0.01662
14.12,0.04857
14.2,0.833
14.28,0.03544
14.36,0.01172
14.44,0.01103
14.52,0.07612
14.6,0.18607
14.68,0.00929
14.76,0.00478
14.84,0.00628
14.92,0.12869
15,0.00747
15.08,0.00334
15.16,0.00463
15.24,0.0502
15.32,0.06398
15.4,0.00502
15.48,0.00463
15.56,0.01442
15.64,0.13078
15.72,0.00943
15.8,0.00935
15.88,0.0295
15.96,0.70758
16.04,0.03769
16.12,0.01259
16.2,0.02045
16.28,0.64436
16.36,0.04703
16.44,0.00845
16.52,0.0053
16.6,0.05583
16.68,0.00837
16.76,0.00436
16.84,0.01005
16.92,0.33323
17,0.03474
17.08,0.00587
17.16,0.00667
17.24,0.15832
17.32,0.0115
17.4,0.00236
17.48,0.00132
17.56,0.00428
17.64,9E-4
17.72,6.7E-4
17.8,6.5E-4
17.88,7.4E-4
17.96,9E-4
18.04,0.00135
18.12,0.00905
18.2,0.01219
18.28,0.00338
18.36,0.00887
18.44,0.24343
18.52,0.02291
18.6,0.00841
18.68,0.03032
18.76,0.16933
18.84,0.01487
18.92,0.01709
19,0.4211
19.08,0.11401
19.16,0.01275
19.24,0.02372
19.32,0.13249
19.4,0.0122
19.48,0.00694
19.56,0.09265
19.64,0.02205
19.72,0.00909
19.8,0.054
19.88,0.22215
19.96,0.01292
20.04,0.00458
20.12,0.00707
20.2,0.00288
20.28,0.00418
20.36,0.07755
20.44,0.0395
20.52,0.00374
20.6,0.00688
20.68,0.01883
20.76,0.00374
20.84,0.00787
20.92,0.04304
21,0.0116
21.08,0.02871
21.16,0.58613
21.24,0.06661
21.32,0.0161
21.4,0.20796
21.48,0.05256
21.56,0.00821
21.64,0.07592
21.72,0.05181
21.8,0.00428
21.88,0.01127
21.96,0.01462
22.04,0.00204
22.12,0.00178
22.2,0.00223
22.28,0.00423
22.36,0.03807
22.44,0.0846
22.52,0.00646
22.6,0.00504
22.68,0.00758
22.76,0.00966
22.84,0.10347
22.92,0.1995
23,0.01612
23.08,0.05833
23.16,0.08306
23.24,0.01832
23.32,0.24983
23.4,0.22526
23.48,0.03292
23.56,0.58054
23.64,0.24911
23.72,0.01934
23.8,0.08054
23.88,0.02178
23.96,0.01425
24.04,0.10828
24.12,0.02433
24.2,0.0408
24.28,0.14375
24.36,0.02329
24.44,0.00722
24.52,0.00591
24.6,0.01063
24.68,0.1953
24.76,0.13044
24.84,0.01824
24.92,0.19474
25,0.04262
25.08,0.01106
25.16,0.02299
25.24,0.00993
25.32,0.07571
25.4,0.09905
25.48,0.01476
25.56,0.18178
25.64,0.05425
25.72,0.0052
25.8,0.00312
25.88,0.00402
25.96,0.0435
26.04,0.04752
26.12,0.005
26.2,0.01539
26.28,0.00657
26.36,0.01763
26.44,0.03175
26.52,0.00921
26.6,0.0737
26.68,0.03746
26.76,0.0361
26.84,0.10595
26.92,0.03025
27,0.1556
27.08,0.10685
27.16,0.02926
27.24,0.10003
27.32,0.02569
27.4,0.01186
27.48,0.00813
27.56,0.00448
27.64,0.00946
27.72,0.00734
27.8,0.08788
27.88,0.05839
27.96,0.01689
28.04,0.03442
28.12,0.02355
28.2,0.33261
28.28,0.15454
28.36,0.03391
28.44,0.03905
28.52,0.02194
28.6,0.16765
28.68,0.06326
28.76,0.10898
28.84,0.08974
28.92,0.00994
29,0.00502
29.08,0.00696
29.16,0.09229
29.24,0.0436
29.32,0.00699
29.4,0.00737
29.48,0.01836
29.56,0.07007
29.64,0.0398
29.72,0.33388
29.8,0.16773
29.88,0.08695
29.96,0.07016
30.04,0.01336
30.12,0.00886
30.2,0.00977
30.28,0.08855
30.36,0.04106
30.44,0.02007
30.52,0.01669
30.6,0.05373
30.68,0.05859
30.76,0.0171
30.84,0.0081
30.92,0.01277
31,0.15092
31.08,0.07509
31.16,0.04703
31.24,0.02848
31.32,0.01491
31.4,0.01366
31.48,0.0276
31.56,0.04984
31.64,0.02533
31.72,0.03414
31.8,0.01743
31.88,0.00445
31.96,0.00674
32.04,0.09016
32.12,0.05229
32.2,0.02949
32.28,0.02356
32.36,0.07972
32.44,0.07189
32.52,0.03267
32.6,0.02307
32.68,0.02635
32.76,0.06942
32.84,0.05179
32.92,0.1341
33,0.07765
33.08,0.04211
33.16,0.02704
33.24,0.08875
33.32,0.05126
33.4,0.10119
33.48,0.05175
33.56,0.00819
33.64,0.00691
33.72,0.05286
33.8,0.03345
33.88,0.06897
33.96,0.04145
34.04,0.01725
34.12,0.01184
34.2,0.06657
34.28,0.05819
34.36,0.04695
34.44,0.02668
34.52,0.01423
34.6,0.00462
34.68,0.01043
34.76,0.01307
34.84,0.01147
34.92,0.00737
35,0.00667
35.08,0.00648
35.16,0.02418
35.24,0.03496
35.32,0.04976
35.4,0.04322
35.48,0.03772
35.56,0.0188
35.64,0.03827
35.72,0.03341
35.8,0.03406
35.88,0.01835
35.96,0.05141
36.04,0.03266
36.12,0.01872
36.2,0.00465
36.28,0.01172
36.36,0.00703
36.44,0.01152
36.52,0.00868
36.6,0.06771
36.68,0.02891
36.76,0.02964
36.84,0.01878
36.92,0.1328
37,0.06034
37.08,0.00894
37.16,0.0073
37.24,0.03552
37.32,0.0259
37.4,0.00456
37.48,0.00595
37.56,0.00993
37.64,0.03128
37.72,0.02769
37.8,0.03008
37.88,0.01057
37.96,0.05602
38.04,0.02481
38.12,0.06816
38.2,0.02476
38.28,0.01135
38.36,0.01422
38.44,0.07451
38.52,0.05669
38.6,0.0111
38.68,0.02313
38.76,0.0223
38.84,0.05537
38.92,0.02376
39,0.08177
39.08,0.02591
39.16,0.01283
39.24,0.00472
39.32,0.00409
39.4,0.0034
39.48,0.00271
39.56,0.00897
39.64,0.00902
39.72,0.04645
39.8,0.02364
39.88,0.13081
39.96,0.0527
40.04,0.04222
40.12,0.03661
40.2,0.02397
40.28,0.05938
40.36,0.02415
40.44,0.04463
40.52,0.01655
40.6,0.05745
40.68,0.03655
40.76,0.03185
40.84,0.04798
40.92,0.01819
41,0.04372
41.08,0.01259
41.16,0.0197
41.24,0.0125
41.32,0.01606
41.4,0.01859
41.48,0.01011
41.56,0.09786
41.64,0.02961
41.72,0.01867
41.8,0.03087
41.88,0.05181
41.96,0.06673
42.04,0.00852
42.12,0.0114
42.2,0.00673
42.28,0.01308
42.36,0.019
42.44,0.01069
42.52,0.03026
42.6,0.01743
42.68,0.08085
42.76,0.04919
42.84,0.01701
42.92,0.02458
43,0.00868
43.08,0.02889
43.16,0.01858
43.24,0.01807
43.32,0.05257
43.4,0.01829
43.48,0.04445
43.56,0.03506
43.64,0.04944
43.72,0.08719
43.8,0.01828
43.88,0.01893
43.96,0.02649
44.04,0.04126
44.12,0.06034
44.2,0.01147
44.28,0.02366
44.36,0.03946
44.44,0.04072
44.52,0.05847
44.6,0.00945
44.68,0.01869
44.76,0.02253
44.84,0.01266
44.92,0.02798
45,0.00648
45.08,0.0067
45.16,0.00495
45.24,0.00468
45.32,0.028
45.4,0.01621
45.48,0.01547
45.56,0.05849
45.64,0.01745
45.72,0.03227
45.8,0.02155
45.88,0.00729
45.96,0.00803
46.04,0.00247
46.12,0.0024
46.2,0.00389
46.28,0.00676
46.36,0.02355
46.44,0.01576
46.52,0.00546
46.6,0.01299
46.68,0.01119
46.76,0.0123
46.84,0.05498
46.92,0.02675
47,0.04657
47.08,0.08504
47.16,0.02553
47.24,0.05101
47.32,0.02232
47.4,0.01051
47.48,0.02726
47.56,0.01396
47.64,0.01141
47.72,0.03396
47.8,0.02064
47.88,0.02576
47.96,0.027
48.04,0.01638
48.12,0.03299
48.2,0.06239
48.28,0.01558
48.36,0.02004
48.44,0.00472
48.52,0.0043
48.6,0.0126
48.68,0.01285
48.76,0.00885
48.84,0.02635
48.92,0.03158
49,0.01902
49.08,0.0374
49.16,0.00973
49.24,0.00689
49.32,0.01517
49.4,0.005
49.48,0.00465
49.56,0.00985
49.64,0.00416
49.72,0.00412
49.8,0.00603
49.88,0.00222
49.96,0.00373
50.04,0.02201
50.12,0.00587
50.2,0.0083
50.28,0.02114
50.36,0.01043
50.44,0.01246
50.52,0.02916
50.6,0.01525
50.68,0.01621
50.76,0.0414
50.84,0.01145
50.92,0.01262
51,0.02519
51.08,0.01078
51.16,0.00955
51.24,0.0134
51.32,0.01951
51.4,0.011
51.48,0.02335
51.56,0.01323
51.64,0.01101
51.72,0.02573
51.8,0.01019
51.88,0.00554
51.96,0.0025
52.04,0.00848
52.12,0.00463
52.2,0.00751
52.28,0.00998
52.36,0.00636
52.44,0.00742
52.52,0.0165
52.6,0.01023
52.68,0.00836
52.76,0.01216
52.84,0.01286
52.92,0.00562
53,0.00915
53.08,0.01438
53.16,0.00881
53.24,0.01455
53.32,0.01206
53.4,0.00527
53.48,0.00698
53.56,0.02185
53.64,0.00668
53.72,0.00946
53.8,0.00915
53.88,0.01634
53.96,0.01871
54.04,0.02663
54.12,0.02943
54.2,0.03926
54.28,0.02568
54.36,0.03606
54.44,0.01526
54.52,0.01701
54.6,0.02728
54.68,0.0198
54.76,0.01942
54.84,0.02031
54.92,0.05783
55,0.02276
55.08,0.03075
55.16,0.03262
55.24,0.03576
55.32,0.01722
55.4,0.0166
55.48,0.0076
55.56,0.01457
55.64,0.00939
55.72,0.01831
55.8,0.0246
55.88,0.01169
55.96,0.01544
56.04,0.01799
56.12,0.01348
56.2,0.01178
56.28,0.01272
56.36,0.01298
56.44,0.02471
56.52,0.0139
56.6,0.01914
56.68,0.01216
56.76,0.01007
56.84,0.01066
56.92,0.01244
57,0.01662
57.08,0.0093
57.16,0.01234
57.24,0.00505
57.32,0.01
57.4,0.00475
57.48,0.00766
57.56,0.01027
57.64,0.00772
57.72,0.01293
57.8,0.02387
57.88,0.01799
57.96,0.01599
58.04,0.01264
58.12,0.01211
58.2,0.03368
58.28,0.01253
58.36,0.02285
58.44,0.02155
58.52,0.02176
58.6,0.01387
58.68,0.01373
58.76,0.01476
58.84,0.01645
58.92,0.01035
59,0.00956
59.08,0.00614
59.16,0.00664
59.24,0.00732
59.32,0.01088
59.4,0.02074
59.48,0.02042
59.56,0.0146
59.64,0.01114
59.72,0.01007
59.8,0.00556
59.88,0.00648
59.96,0.00502
60.04,0.00371
60.12,0.01508
60.2,0.00576
60.28,0.00982
60.36,0.01322
60.44,0.00636
60.52,0.01223
60.6,0.00913
60.68,0.00518
60.76,0.00902
60.84,0.00334
60.92,0.00484
61,0.00566
61.08,0.01655
61.16,0.00957
61.24,0.01583
61.32,0.0207
61.4,0.03312
61.48,0.01975
61.56,0.02675
61.64,0.02529
61.72,0.01634
61.8,0.018
61.88,0.01042
61.96,0.00847
62.04,0.00863
62.12,0.01713
62.2,0.01632
62.28,0.01583
62.36,0.00908
62.44,0.01455
62.52,0.00652
62.6,0.01148
62.68,0.01395
62.76,0.00694
62.84,0.01511
62.92,0.00763
63,0.00985
63.08,0.01443
63.16,0.01278
63.24,0.01457
63.32,0.00967
63.4,0.00723
63.48,0.00715
63.56,0.00947
63.64,0.00568
63.72,0.00671
63.8,0.01001
63.88,0.00778
63.96,0.006
64.04,0.00394
64.12,0.00263
64.2,0.00254
64.28,0.01182
64.36,0.00665
64.44,0.01013
64.52,0.01355
64.6,0.00819
64.68,0.00923
64.76,0.00627
64.84,0.00545
64.92,0.00392
65,0.00436
65.08,0.00645
65.16,0.00592
65.24,0.00784
65.32,0.01119
65.4,0.01032
65.48,0.01
65.56,0.00657
65.64,0.00497
65.72,0.01103
65.8,0.00318
65.88,0.00797
65.96,0.00665
66.04,0.00785
66.12,0.00464
66.2,0.0066
66.28,0.00381
66.36,0.00375
66.44,0.00436
66.52,0.0093
66.6,0.00352
66.68,0.00671
66.76,0.00534
66.84,0.00444
66.92,0.00768
67,0.00299
67.08,0.00271
67.16,0.00149
67.24,0.00127
67.32,0.0038
67.4,0.00169
67.48,0.0041
67.56,0.00437
67.64,0.00583
67.72,0.01139
67.8,0.01042
67.88,0.00717
67.96,0.00498
68.04,0.00463
68.12,0.00765
68.2,0.00264
68.28,0.00418
68.36,0.0027
68.44,0.00275
68.52,0.00541
68.6,0.00484
68.68,0.00647
68.76,0.00388
68.84,0.00297
68.92,0.00454
69,0.00458
69.08,0.00497
69.16,0.00503
69.24,0.00668
69.32,0.00969
69.4,0.00572
69.48,0.00875
69.56,0.00419
69.64,0.00292
69.72,0.00324
69.8,0.00539
69.88,0.00659
69.96,0.00433
70.04,0.00432
70.12,0.00401
70.2,0.00297
70.28,0.00239
70.36,0.00175
70.44,0.0025
70.52,0.00179
70.6,0.00157
70.68,0.00396
70.76,0.00427
70.84,0.00323
70.92,0.00248
71,0.00262
71.08,0.00305
71.16,0.00199
71.24,0.00366
71.32,0.00194
71.4,0.00207
71.48,0.00231
71.56,0.00191
71.64,0.00505
71.72,0.00184
71.8,0.00287
71.88,0.00225
71.96,0.00114
72.04,0.00211
72.12,0.00321
72.2,0.00358
72.28,0.00212
72.36,0.00187
72.44,0.00219
72.52,0.00178
72.6,0.0021
72.68,0.00132
72.76,0.00193
72.84,0.00171
72.92,0.00119
73,0.00287
73.08,0.00162
73.16,0.00163
73.24,0.00174
73.32,0.00198
73.4,0.00219
73.48,0.00151
73.56,0.00346
73.64,0.00143
73.72,0.00152
73.8,0.00235
73.88,0.0022
73.96,0.00185
74.04,0.00311
74.12,0.00294
74.2,0.00252
74.28,0.00227
74.36,0.00209
74.44,0.00224
74.52,0.00379
74.6,0.00233
74.68,0.00307
74.76,0.00277
74.84,0.00164
74.92,0.00208
75,0.00113
75.08,0.0025
75.16,0.00128
75.24,0.00183
75.32,0.00288
75.4,0.00219
75.48,0.00252
75.56,0.00358
75.64,0.00195
75.72,0.00182
75.8,0.00237
75.88,0.00185
75.96,0.0019
76.04,0.00237
76.12,0.00258
76.2,0.00222
76.28,0.00192
76.36,0.00229
76.44,0.00283
76.52,0.00139
76.6,0.00316
76.68,0.00169
76.76,0.00182
76.84,0.00237
76.92,0.00128
77,0.00206
77.08,0.00179
77.16,0.00248
77.24,0.00219
77.32,0.00257
77.4,0.00297
77.48,0.00211
77.56,0.00237
77.64,0.00209
77.72,0.00151
77.8,0.00235
77.88,0.00313
77.96,0.00282
78.04,0.00234
78.12,0.00427
78.2,0.00191
78.28,0.00196
78.36,0.00246
78.44,0.00178
78.52,0.00246
78.6,0.00272
78.68,0.00252
78.76,0.00414
78.84,0.00276
78.92,0.00178
79,0.0026
79.08,0.00214
79.16,0.00148
79.24,0.00321
79.32,0.00312
79.4,0.00334
79.48,0.00297
79.56,0.00277
79.64,0.00352
79.72,0.00156
79.8,0.00225
79.88,0.00206
79.96,0.00139
80.04,0.00222
80.12,0.00318
80.2,0.00356
80.28,0.0018
80.36,0.0024
80.44,0.00368
80.52,0.00217
80.6,0.00277
80.68,0.0039
80.76,0.00304
80.84,0.00207
80.92,0.00277
81,0.00167
81.08,0.0011
81.16,0.00163
81.24,0.00171
81.32,0.00224
81.4,0.00279
81.48,0.00418
81.56,0.00391
81.64,0.00398
81.72,0.00477
81.8,0.00491
81.88,0.0044
81.96,0.00285
82.04,0.0039
82.12,0.00583
82.2,0.00351
82.28,0.00377
82.36,0.0046
82.44,0.00311
82.52,0.00242
82.6,0.00315
82.68,0.00196
82.76,0.00254
82.84,0.00299
82.92,0.00336
83,0.0037
83.08,0.00284
83.16,0.0039
83.24,0.00365
83.32,0.00282
83.4,0.00262
83.48,0.00311
83.56,0.00319
83.64,0.00238
83.72,0.00272
83.8,0.00525
83.88,0.0034
83.96,0.00203
84.04,0.00374
84.12,0.00387
84.2,0.00352
84.28,0.00331
84.36,0.00339
84.44,0.00304
84.52,0.00251
84.6,0.00367
84.68,0.00271
84.76,0.00288
84.84,0.00404
84.92,0.00224
85,0.00247
85.08,0.0031
85.16,0.0021
85.24,0.00259
85.32,0.00278
85.4,0.00233
85.48,0.00179
85.56,0.00242
85.64,0.00197
85.72,0.00272
85.8,0.00264
85.88,0.00199
85.96,0.00311
86.04,0.00374
86.12,0.00275
86.2,0.00313
86.28,0.00459
86.36,0.00272
86.44,0.00314
86.52,0.00423
86.6,0.00383
86.68,0.00318
86.76,0.00317
86.84,0.00318
86.92,0.00215
87,0.00221
87.08,0.00262
87.16,0.00246
87.24,0.00264
87.32,0.00369
87.4,0.00454
87.48,0.00257
87.56,0.00282
87.64,0.00334
87.72,0.00225
87.8,0.0018
87.88,0.00235
87.96,0.00312
88.04,0.00281
88.12,0.00344
88.2,0.00315
88.28,0.00309
88.36,0.00275
88.44,0.0028
88.52,0.00346
88.6,0.00317
88.68,0.0033
88.76,0.00323
88.84,0.0026
88.92,0.00312
89,0.00284
89.08,0.00207
89.16,0.00194
89.24,0.00225
89.32,0.00172
89.4,0.0024
89.48,0.00219
89.56,0.00221
89.64,0.00226
89.72,0.00216
89.8,0.00201
89.88,0.00163
89.96,0.0016
90.04,0.00163
90.12,0.00218
90.2,0.00263
90.28,0.00297
90.36,0.00322
90.44,0.00327
90.52,0.00327
90.6,0.00406
90.68,0.00434
90.76,0.00282
90.84,0.00252
90.92,0.00304
91,0.00292
91.08,0.00244
91.16,0.00297
91.24,0.00347
91.32,0.00211
91.4,0.00151
91.48,0.0017
91.56,0.00211
91.64,0.00221
91.72,0.00267
91.8,0.00324
91.88,0.00213
91.96,0.00214
92.04,0.00253
92.12,0.00268
92.2,0.00249
92.28,0.00294
92.36,0.00319
92.44,0.0028
92.52,0.00271
92.6,0.00358
92.68,0.00296
92.76,0.00169
92.84,0.00168
92.92,0.00245
93,0.00161
93.08,0.00194
93.16,0.00208
93.24,0.0016
93.32,0.00132
93.4,0.00217
93.48,0.00285
93.56,0.00216
93.64,0.00316
93.72,0.00257
93.8,0.00202
93.88,0.0018
93.96,0.00237
94.04,0.0021
94.12,0.00165
94.2,0.00178
94.28,0.00131
94.36,0.00114
94.44,0.00113
94.52,0.00157
94.6,0.00173
94.68,0.00221
94.76,0.00312
94.84,0.00318
94.92,0.00227
95,0.00231
95.08,0.00287
95.16,0.00246
95.24,0.00156
95.32,0.00178
95.4,0.0022
95.48,0.00202
95.56,0.00211
95.64,0.00222
95.72,0.00185
95.8,0.00174
95.88,0.00211
95.96,0.00177
96.04,0.00178
96.12,0.00177
96.2,0.00224
96.28,0.00215
96.36,0.00228
96.44,0.00219
96.52,0.00196
96.6,0.00199
96.68,0.00186
96.76,0.00275
96.84,0.00222
96.92,0.00182
97,0.00161
97.08,0.00187
97.16,0.00173
97.24,0.00128
97.32,0.00148
97.4,0.00114
97.48,0.00116
97.56,0.0013
97.64,0.00171
97.72,0.0018
97.8,0.00169
97.88,0.00218
97.96,0.00204
98.04,0.00174
98.12,0.00171
98.2,0.00225
98.28,0.00223
98.36,0.0017
98.44,0.00165
98.52,0.00145
98.6,0.00147
98.68,0.0012
98.76,9.8E-4
98.84,9.5E-4
98.92,0.00127
99,0.00156
99.08,0.00126
99.16,0.00152
99.24,0.00157
99.32,0.00139
99.4,0.00142
99.48,0.00186
99.56,0.00224
99.64,0.00169
99.72,0.00213
99.8,0.00244
99.88,0.00212
99.96,0.00146
100.04,0.00167
100.12,0.00223
100.2,0.00153
100.28,0.0012
100.36,0.00113
100.44,0.00136
100.52,0.00158
100.6,0.00167
100.68,0.00161
100.76,0.00131
100.84,0.00145
100.92,0.00145
101,0.0013
101.08,0.00114
101.16,9.2E-4
101.24,0.00106
101.32,0.00103
101.4,0.00145
101.48,0.00151
101.56,0.00132
101.64,0.00111
101.72,9.5E-4
101.8,0.00118
101.88,0.00116
101.96,0.00144
102.04,0.00132
102.12,0.0011
102.2,0.00129
102.28,0.0012
102.36,0.00143
102.44,0.00108
102.52,0.0012
102.6,0.0011
102.68,8.7E-4
102.76,9.6E-4
102.84,9.4E-4
102.92,0.00101
103,7.6E-4
103.08,7.9E-4
103.16,8.3E-4
103.24,7.3E-4
103.32,8.8E-4
103.4,0.00109
103.48,0.00162
103.56,0.00128
103.64,9.1E-4
103.72,0.00116
103.8,0.00165
103.88,0.00182
103.96,0.00158
104.04,0.00189
104.12,0.00183
104.2,0.00137
104.28,0.00122
104.36,0.00119
104.44,0.00122
104.52,0.00109
104.6,9.7E-4
104.68,7.8E-4
104.76,8E-4
104.84,0.00114
104.92,0.00131
105,0.00153
105.08,0.00168
105.16,0.00214
105.24,0.00233
105.32,0.00176
105.4,0.00169
105.48,0.00179
105.56,0.00175
105.64,0.00139
105.72,0.00132
105.8,0.00146
105.88,0.00131
105.96,0.00154
106.04,0.00152
106.12,0.00156
106.2,0.00141
106.28,0.00108
106.36,0.00131
106.44,0.00125
106.52,0.00143
106.6,0.00139
106.68,0.00137
106.76,0.00145
106.84,0.00119
106.92,0.00123
107,0.00115
107.08,0.00135
107.16,0.00141
107.24,0.00101
107.32,8E-4
107.4,7.4E-4
107.48,9.1E-4
107.56,8.5E-4
107.64,6E-4
107.72,4.6E-4
107.8,5.1E-4
107.88,7.2E-4
107.96,7.6E-4
108.04,9.1E-4
108.12,0.00111
108.2,0.00109
108.28,0.00118
108.36,9.6E-4
108.44,9.3E-4
108.52,0.0011
108.6,0.00139
108.68,0.00156
108.76,0.00103
108.84,9.3E-4
108.92,0.00113
109,0.00121
109.08,0.00104
109.16,8.6E-4
109.24,0.00105
109.32,9.3E-4
109.4,6.8E-4
109.48,5.6E-4
109.56,5.8E-4
109.64,7.5E-4
109.72,7.3E-4
109.8,9.1E-4
109.88,9.8E-4
109.96,8.8E-4
110.04,0.00104
110.12,9.8E-4
110.2,9.5E-4
110.28,9.2E-4
110.36,9.3E-4
110.44,0.00113
110.52,0.00125
110.6,0.00136
110.68,0.00143
110.76,0.00144
110.84,0.00134
110.92,0.00117
111,0.00141
111.08,0.00136
111.16,0.00121
111.24,0.00118
111.32,0.00114
111.4,0.00111
111.48,0.00107
111.56,0.00123
111.64,0.00132
111.72,0.00103
111.8,9.6E-4
111.88,8.9E-4
111.96,0.00109
112.04,0.0012
112.12,8.8E-4
112.2,8.3E-4
112.28,7.4E-4
112.36,6.9E-4
112.44,6.6E-4
112.52,5.5E-4
112.6,6E-4
112.68,6.1E-4
112.76,6.8E-4
112.84,7.1E-4
112.92,7.4E-4
113,0.00102
113.08,0.00115
113.16,0.00104
113.24,8.7E-4
113.32,8.5E-4
113.4,0.00112
113.48,0.00113
113.56,0.00111
113.64,9.9E-4
113.72,7.9E-4
113.8,8.1E-4
113.88,8.4E-4
113.96,8.8E-4
114.04,8.6E-4
114.12,6.7E-4
114.2,6.7E-4
114.28,6.8E-4
114.36,7.6E-4
114.44,8.6E-4
114.52,8.7E-4
114.6,8.9E-4
114.68,8.4E-4
114.76,9E-4
114.84,0.00101
114.92,9.7E-4
115,8.8E-4
115.08,7.7E-4
115.16,8.2E-4
115.24,9.8E-4
115.32,9.2E-4
115.4,0.00103
115.48,0.0011
115.56,0.00104
115.64,9.7E-4
115.72,8.8E-4
115.8,0.00108
115.88,0.00112
115.96,9.8E-4
116.04,9.7E-4
116.12,9.6E-4
116.2,0.00105
116.28,0.00141
116.36,0.00171
116.44,0.0019
116.52,0.00209
116.6,0.00236
116.68,0.0024
116.76,0.00213
116.84,0.00199
116.92,0.00211
117,0.00224
117.08,0.00227
117.16,0.00216
117.24,0.00217
117.32,0.00185
117.4,0.00157
117.48,0.00159
117.56,0.00165
117.64,0.00188
117.72,0.00206
117.8,0.00176
117.88,0.00148
117.96,0.00153
118.04,0.0017
118.12,0.0018
118.2,0.0016
118.28,0.00129
118.36,0.00103
118.44,9.8E-4
118.52,0.00115
118.6,0.00133
118.68,0.00114
118.76,8.7E-4
118.84,8.2E-4
118.92,9.5E-4
119,9.5E-4
119.08,0.00103
119.16,0.00105
119.24,8.9E-4
119.32,9.1E-4
119.4,9.7E-4
119.48,8.9E-4
119.56,9E-4
119.64,8.2E-4
119.72,6.9E-4
119.8,6.8E-4
119.88,6.4E-4
119.96,6.5E-4
119.99,6.8E-4