File: 2021/xrd/cif_files/SC-009-C7SC03739B-s002.csv
2Î¸,I,
0,12
0,12
0.49961,48
2.14959,24
0,48
0,12
0,24
0.49788,24
0,48
0,24
0,48
0.08533,48
0,6
0.01459,48
0.16646,48
0,48
0,48
0.17705,24
0.00967,48
0,48
0.26171,48
0,48
0.11371,24
0,24
0.0258,24
0,48
0.14907,24
0,24
0,48
0,48
0.00279,12
0,24
0.02378,24
0.28576,24
0.26432,48
0,48
0.00778,24
0.15006,24
0.00321,48
0.02796,48
0,24
0.10043,12
0.20201,24
0.08229,24
0,24
5.8E-4,24
0,24
0,48
0.00227,48
0.2725,48
0,8
0,24
0,48
0.00927,6
0.00145,24
0,24
0,48
0.02892,24
0,48
0,24
0.02368,24
0,24
0.00147,48
0.00241,48
1E-5,24
0,48
0,48
0,24
0,48
0.14061,48
0,48
0.00558,12
0.01644,48
0,24
0,48
0.00301,48
0.00137,6
0.00133,48
0.02028,24
0,48
0.00316,48
0.00724,48
0.03586,48
0,24
0,48
0.06525,48
7.4E-4,48
0,48
0.00152,48
0,24
0.01329,48
0.00913,24
0.01798,24
0.18038,48
0,48
0,24
0,24
0.00723,24
4.9E-4,48
0,24
0.01202,48
0,48
3.4E-4,48
0,24
0,48
0.00557,6
0.00626,48
0.00645,24
0,48
0.00123,48
0.00701,48
0.00109,24
0.00237,48
3.2E-4,24
0.00101,48
0.07786,24
0,48
0,48
0,24
0,48
0,48
0,48
0,48
1.1E-4,48
3E-5,48
0,48
0,48
0,48
0,48
0.01012,48
2E-4,48
0,48
0,48
0,48
0,48
0,24
0,24
0,48
0,6
7.4E-4,48
0.00411,48
3.1E-4,6
0.00286,24
0,24
0,24
0.04166,24
0,48
5E-5,48
0.00135,48
0,24
0,48
0,48
0,24
0,48
0.0022,48
0,48
0.0039,48
1E-5,8
9E-5,48
0,48
0,48
0,12
0,12
0.00125,48
6E-4,48
0.01857,12
0,24
0,48
3.4E-4,48
0,48
0,24
0,24
0,48
0,48
0.0547,48
0.00208,48
8.8E-4,48
0,48
0,6
0,48
0,48
5.5E-4,48
2.5E-4,48
0,24
0,48
7.2E-4,48
0.00885,48
0,48
1.9E-4,48
4.6E-4,48
4E-5,48
6E-5,24
1.9E-4,48
4E-4,48
0.00597,48
0,12
0,24
0,24
0,48
0.07034,24
0,24
0,48
0.00474,48
0,24
0,48
0,24
0,24
8E-5,24
4E-5,24
0.00739,24
0,24
0,48
0.00117,48
0,48
0,24
0,24
0,48
0.00219,48
0.0067,48
0.00253,48
0.00447,48
0,48
8E-5,48
9E-5,24
0,48
0.00184,48
0,48
0,6
4.5E-4,48
0.01286,48
0.00594,48
0,48
1.5E-4,48
1.1E-4,24
0,48
0,48
0,24
0.00447,48
0.00845,24
0,24
0,24
0,48
0.00648,48
0.00186,24
0.00651,24
8.4E-4,48
0.00408,48
0,48
0,48
1.3E-4,48
0.00146,48
0,48
1.5E-4,24
0.0078,24
1.2E-4,24
0.00117,48
0.00386,48
6E-5,48
0,48
5E-5,48
0,48
0.00728,48
8.1E-4,48
0,48
0,48
1.5E-4,48
0,48
0,48
2E-4,24
0,24
0,48
0,48
1.5E-4,48
4.8E-4,48
0,48
0.01207,24
0.00463,48
2E-5,48
2.5E-4,48
0.01307,24
1.3E-4,48
0,48
0.00612,48
0.02038,48
2E-5,48
0,48
0,48
0,48
0,48
0,24
0,48
0,48
0.00909,24
0,48
0.00154,48
0.00742,48
0,48
1.6E-4,48
0,24
8E-5,48
0,48
0,48
0,48
0,24
0,24
0,48
0,24
0,48
9E-5,48
0,48
0.00265,24
0.00527,48
0,24
0.00103,48
0.00188,48
0,24
4E-5,48
0,48
0,48
0,48
0,48
0,48
0,48
0.00982,48
0,48
0,24
1E-5,24
0.00283,48
0,48
0,24
0,24
2.9E-4,24
0,48
2.2E-4,48
0.00396,48
0,48
0,48
0.00385,48
0,48
0,48
0,8
0,48
0,48
0.0018,48
0,24
0,48
7.4E-4,48
0,24
3E-5,48
0,48
0,48
0.00281,24
0,48
0,6
0.00219,48
5.4E-4,24
0,24
0,48
0,48
1.1E-4,48
0,48
4.4E-4,24
0,48
3.4E-4,48
0.00343,48
0,48
0,48
0,48
0,48
0.00407,12
0,48
0.00252,24
1.5E-4,48
0,48
0,24
3.3E-4,48
0,48
0,48
2E-4,24
0,48
2.7E-4,48
0,48
5.7E-4,48
0,24
5E-4,48
5E-5,48
0,48
0,24
0,48
0.00119,48
0,48
0,24
0.00196,48
0,24
1.9E-4,48
2.3E-4,48
0,48
0,48
2E-5,48
7E-5,48
0,48
6.3E-4,24
5E-5,48
0,48
1E-3,48
4.1E-4,48
1.4E-4,48
0,48
6E-5,48
0,48
3.2E-4,48
0,48
8.8E-4,48
3.4E-4,48
0,48
4.7E-4,48
7.5E-4,24
0,12
0,48
1.1E-4,48
1.5E-4,48
1E-5,24
0,48
9.3E-4,48
0,48
0,48
0,48
0,48
4.3E-4,48
0,48
0,48
6.3E-4,48
0,24
0.00102,24
0,48
0,48
3E-5,48
0,24
0,24
7.9E-4,48
0,24
1.1E-4,24
5.1E-4,48
0,48
0,48
1.2E-4,48
0.00183,48
0,48
5E-5,24
0,24
0,48
2E-5,48
0,48
0,48
2E-5,48
0,48
0.00167,48
0,24
0,48
8.3E-4,48
1E-5,48
0,24
2E-5,48
0.00311,48
0,48
1E-5,48
0,48
2E-5,48
0,24
5E-5,24
7E-5,48
0,48
1.5E-4,48
0,48
0,48
0,24
0,48
2E-5,48
2.4E-4,48
0,48
1E-5,48
5E-5,48
3E-5,48
0.00219,48
0,48
0,48
5.5E-4,48
0,48
0,48
0,48
0,48
0.0025,24
0,48
1.7E-4,24
0,48
7E-5,48
0,48
1E-5,48
0,48
1E-4,48
0,24
0,48
0,48
0.00252,48
2E-5,48
0,48
0,48
2E-5,48
0,48
1E-4,48
1E-5,48
0,48
0.00255,48
0,24
0,48
1.6E-4,48
0,48
0,48
0,24
0,48
7.1E-4,48
0,48
0,48
5E-5,24
3E-5,48
0.0018,48
2E-5,48
0,48
4.1E-4,48
0,48
0,48
0,48
0,48
6.7E-4,48
6.9E-4,24
9.8E-4,48
0,48
0,24
6E-5,48
0,48
1E-5,48
0.00351,48
2E-5,48
0,24
7.4E-4,48
0,48
0,48
2E-5,48
3.7E-4,48
0,48
1.7E-4,48
1.6E-4,48
0,48
0.00196,24
0,48
0,48
0,48
0,48
4E-4,48
0.00133,24
0,48
0.003,48
0,48
1.2E-4,48
0,48
1.7E-4,48
0,48
0,48
0,48
8.4E-4,48
0,24
0,48
0.00124,48
0,48
0,48
0,48
0,24
0,48
0,48
0,48
0,48
0,48
0,48
0,48
0,48
0,48
1E-5,48
0,24
0,48
0,48
0,24
0,48
0,48
0,48
0,48
5E-5,48
0,48
0.00112,48
4.3E-4,24
0,48
1.4E-4,48
0,48
0,48
0,48
7E-5,48
0,48
0,48
3E-5,24
2.6E-4,48
0,48
0,48
0,48
1E-4,48
0.00115,48
0,24
0,48
0,48
8E-5,48
0,48
0.00232,48
0,48
0,24
0,24
0,48
0,48
6.9E-4,48
0,6
5.4E-4,48
0,48
0.00139,48
0,24
7.9E-4,48
0,48
6.9E-4,48
0,48
4.3E-4,48
0,48
0,24
0.00231,48
0,48
2.1E-4,48
0,48
8.4E-4,48
0,48
0,48
0.00624,48
0,48
2.5E-4,48
1E-5,48
0,48
0,48
0,48
6.5E-4,48
0,48
0,48
0,48
2.5E-4,48
0,48
0,48
3E-5,24
0,48
0,48
0,24
0,48
0,48
0,48
1.7E-4,48
0,48
0,48
0,48
7.9E-4,48
0,24
0,48
1.4E-4,48
0,48
3E-4,48
0,24
0,48
7.5E-4,48
0,48
9E-5,48
7E-5,24
0,48
0,48
7.9E-4,48
0,48
3E-5,48
0,24
0,48
4.3E-4,48
0,48
1E-5,48
8.5E-4,48
0,48
0.0016,48
0,48
8E-5,24
0,48
2.5E-4,48
0,48
0,24
0.00196,48
0,48
1.3E-4,48
0,48
0,48
0,48
1.4E-4,48
0,48
1E-5,48
0.00146,48
8E-5,48
1E-5,48
0,48
0,48
7E-5,48
7.3E-4,48
0,48
2.2E-4,48
0,48
9.7E-4,48
0,48
2.3E-4,48
0,48
0,24
0,48
0,48
0,48
3E-5,48
0,24
0,48
1.9E-4,48
5E-5,48
9.6E-4,24
0.00101,48
0,48
2.2E-4,48
0,48
0.0054,48
0,48
0,48
1.5E-4,48
0,48
0.00105,48
5.1E-4,24
0,48
7.1E-4,24
0,48
1.6E-4,48
0,48
0,48
7.2E-4,48
0,48
4.7E-4,48
0,24
0.00204,48
0,48
3E-5,48
4.9E-4,48
0,48
4E-5,48
0,48
2.4E-4,48
0.00153,48
0,48
7.3E-4,48
0,12
0,24
7.6E-4,48
2E-5,48
0,48
0,48
5E-5,48
0,24
6E-5,48
0,24
3E-5,48
1E-5,48
0,48
7.4E-4,24
0,48
0.00143,48
0,48
0,48
1E-5,48
0,48
7.2E-4,48
0,48
0,48
6E-4,24
0,48
2.4E-4,48
0,48
2E-5,48
2E-5,48
0,24
0,48
0,48
9E-5,48
9.8E-4,48
0,48
0,48
0,48
2.2E-4,24
1.8E-4,48
0,48
3.6E-4,24
1.7E-4,48
0,48
0.00112,48
0,48
0.00104,24
0,48
0,48
0,48
0,48
2.4E-4,48
1.5E-4,48
0.00157,48
0,48
8.2E-4,48
2.6E-4,48
0,48
0,48
3.7E-4,48
0,48
0,48
0,48
0,48
0.00135,48
0,48
1.3E-4,48
0,24
0,48
3.1E-4,48
0,6
4.1E-4,48
0,24
6E-5,48
0,48
1E-5,48
1.4E-4,24
0,48
0,48
0,48
0,24
0,48
1.6E-4,48
0,24
0,48
1.2E-4,48
9E-5,48
0,24
0,48
2.4E-4,24
1.5E-4,48
0.00151,48
0,48
3E-5,6
0,48
1E-5,48
8.6E-4,48
6E-5,24
0,48
0,48
1.8E-4,24
6.1E-4,24
6.6E-4,48
0,48
0,48
0,24
1E-5,48
1.7E-4,48
0,48
0,48
0,48
0,48
0,48
1.2E-4,48
0,48
0,48
0,48
0,48
3.7E-4,48
0,48
0,48
7E-5,48
0,48
0,48
2.3E-4,48
0,24
0,48
6E-5,48
0,48
0,48
0,48
1.5E-4,24
0,48
0,48
1E-4,24
0,48
0,48
3E-5,48
9E-5,48
5.2E-4,48
0,48
8E-5,48
6E-5,48
0,48
1E-5,48
0.00136,48
0,48
1E-5,48
0,48
0,48
0,48
1.5E-4,48
0,48
2.4E-4,48
3.6E-4,48
0,48
0,48
2E-5,48
1.7E-4,48
1.6E-4,48
0,48
0,48
0,24
0,48
0,48
0.00124,48
0,48
0,24
1.5E-4,24
6E-5,24
0,48
0,48
0,24
0,48
2E-5,48
8.5E-4,48
0,48
0,48
2.8E-4,48
0,24
0,48
0,48
8E-5,48
1.7E-4,48
0,24
1E-4,48
0,48
2E-4,24
0,48
3.5E-4,48
7E-5,48
0,48
0,48
1.3E-4,48
2.3E-4,48
1.1E-4,48
0,48
0,48
0,48
3E-5,48
2E-5,48
0,48
0,48
5E-5,48
0,48
0,48
1E-5,48
0,48
0,48
0,24
0,24
4E-5,48
0,48
2.2E-4,48
2E-5,48
0,48
6.9E-4,24
0,48
1E-4,48
0,48
0,48
1.3E-4,48
0,48
2E-5,48
3E-5,48
7.3E-4,24
0,48
0,48
5E-5,24
0,48
0,48
4E-5,48
0,48
0,48
2.6E-4,48
1.4E-4,48
0,48
1E-5,24
0,24
4E-5,24
0,24
1E-5,48
2E-5,48
1.7E-4,48
0,48
3.2E-4,48
0,48
0,48
0,48
2E-5,48
0,48
1.8E-4,48
0,48
1E-4,48
0,48
0,48
0,48
1E-5,48
0,48
0,48
4E-5,48
0,24
0,48
0,48
9E-5,48
0,48
2.7E-4,48
5E-5,48
0,48
0,48
0,48
3.2E-4,48
0,48
0,48
4E-5,48
1E-5,48
0,48
1E-5,48
1E-5,48
0,48
6E-5,48
4E-5,24
1.4E-4,48
0,12
0,48
3E-5,48
0,48
0,24
7E-5,48
1E-5,48
0,48
3E-5,48
1E-5,48
0,48
0,48
0,24
9E-5,48
0,48
0,48
0,48
1E-5,48
0,48
0,24
7E-5,24
3E-5,48
0,48
0.00131,24
1.2E-4,48
0,48
5E-5,24
2E-4,48
0,24
0,24
0,48
3E-5,48
0,48
0,24
0,48
2E-4,48
0,48
0,48
0,24
0,48
0,48
0,48
0,48
4E-4,48
9E-5,48
0,48
4E-4,48
0,48
0,48
0,48
1.4E-4,48
2.5E-4,48
0,48
0,48
5E-5,48
5E-5,8
0,48
0,48
0,24
0,48
0,48
1E-4,48
0,48
0,24
1E-5,48
0,48
7E-5,48
0,48
2E-4,48
5E-5,48
1E-5,48
0,48
5E-5,48
9E-5,48
3.6E-4,48
0,48
2E-4,48
0,48
0,48
0,48
2.7E-4,48
2E-5,48
1.8E-4,48
0,24
1.6E-4,48
1.6E-4,48
0,48
1E-5,24
0,48
0,48
0,48
1E-5,48
0,48
0,48
1.4E-4,48
5E-5,48
1E-5,48
0,48
3.2E-4,48
2E-5,48
0,48
0,48
1.6E-4,48
0,24
1.6E-4,48
0,48
3.8E-4,24
0,48
0,48
3E-5,48
0,48
0,48
0,48
3.1E-4,48
3E-5,48
5.1E-4,48
0,48
2.2E-4,48
3E-4,48
0,48
0,24
1E-5,48
0,24
0,48
1E-5,48
2.6E-4,48
0,48
7.1E-4,48
0,48
1.2E-4,48
0,48
0,48
0,48
3E-5,48
0,48
7E-5,48
3.6E-4,48
0,24
6E-5,48
0.00146,24
0,48
0,48
0,48
8E-5,48
0,48
0.00107,24
0,48
0.00138,48
0,48
0,48
4E-5,48
0,48
0,24
0,48
2E-5,48
4E-5,48
0,48
8E-4,48
0,48
2E-5,48
0,48
0,24
2E-5,48
0,48
1E-5,24
0,48
0,48
0,48
2E-5,48
0,48
0,48
0,48
4E-5,48
0,48
0,24
1.9E-4,48
0,48
0,48
4E-5,24
0,48
0,48
1E-5,48
4E-5,48
0,48
0,48
2.4E-4,48
0,48
0,48
2E-5,48
2E-5,48
0,48
0,48
4.8E-4,48
0,48
0,48
0,24
8.9E-4,48
0,24
0,48
0,24
4E-5,48
0,48
0,48
0,48
1E-5,48
0,48
0,48
6E-5,48
1E-4,48
0,48
1E-5,48
0,48
0,48
0,48
4E-5,24
4E-5,24
1E-4,48
0,48
3E-5,48
3E-4,48
0,48
1E-5,48
0,48
3E-5,48
0,24
1E-5,48
0,48
0,24
0,48
4E-5,48
0,48
0,48
0,24
9E-5,48
0,48
1E-5,48
0,48
4E-5,48
0,48
6E-5,48
0,48
6E-5,48
0,48
1.8E-4,24
0,48
8E-5,48
0,48
0,48
4E-5,48
1E-5,48
0,48
0,48
2.6E-4,48
1.4E-4,48
0,48
1E-4,48
0,24
0,24
0,24
0,48
0,48
0.00156,48
2E-5,48
0,48
0,48
0,48
3E-5,48
1E-5,48
0,48
0,48
0,48
5E-5,48
0,48
0,48
0,48
1.8E-4,48
2.4E-4,48
1.3E-4,24
1.8E-4,24
2.8E-4,48
9E-5,48
0,48
1E-5,48
0,48
1.2E-4,48
6.7E-4,48
0,48
1E-5,48
0,48
0,48
5E-5,48
0,48
2.7E-4,48
0,48
1E-5,48
0,48
0,48
0,48
6E-5,48
4E-5,48
0,48
4E-5,48
0,48
9.7E-4,48
0,48
0,48
0,24
0,48
0,48
7E-5,48
0,48
0,48
5.4E-4,48
0,48
1.8E-4,24
0,48
0,24
1E-5,48
0,48
0,24
1E-5,48
0,48
0,48
0,48
0,48
0,48
0,48
0,48
0,48
3.1E-4,48
0,48
0,48
0,48
1E-5,48
0,24
0,48
0,24
9E-5,48
0,48
4E-5,48
0,48
4.5E-4,48
0,48
6.3E-4,48
1E-5,48
0,48
4E-5,48
6.1E-4,48