File: 2021/xrd/cif_files/simulado_pcn224.csv
2theta,I
37.11768,12
16.51287,12
11.25754,6
0.67653,24
0.12017,48
0.01201,24
1.57558,24
0.13464,48
0.17889,48
0.04929,24
0.09717,48
0.00539,48
0.03324,48
0.0809,48
0.23913,48
0.15596,48
0.81275,48
0.07795,48
0.04816,48
0.05864,24
0.07858,6
0.06982,24
0.00673,48
0.04375,48
0.10742,24
0.19414,24
0.41957,48
0.03132,48
0.07193,24
0.06263,24
0.07415,48
0.03968,48
0.0644,24
0.08163,24
0.67813,24
0.01818,48
0.0655,48
0.01235,24
0.06146,24
0.22868,48
0.02227,48
0.08295,48
0.03603,48
0.10464,48
0.00547,48
0.01028,48
0.01167,48
0.2759,48
1E-3,48
0.02202,6
0.01566,24
3.8E-4,48
0.05476,24
0.07691,48
0.01752,48
0.09211,24
0.44859,48
0.06814,48
9E-5,48
0.01188,24
0.18922,48
0.00139,48
0.04129,48
0.00413,48
0.11145,48
1.4E-4,48
0.04652,24
0.01171,24
0.00104,24
0.00735,48
0.00186,6
0.00862,24
0.05817,24
0.00134,24
0.06976,48
6.2E-4,24
0.02982,48
0.06149,48
0.00175,48
0.02952,24
2.4E-4,48
0.0015,48
0.1337,48
5.5E-4,48
0.03692,24
0.00755,24
0.00657,24
0.1068,48
0.04551,48
0.00593,24
0.00295,24
0.01254,48
0.07341,48
0.03654,48
0.00786,48
0.00898,24
0.00826,6
0.00288,48
0.00349,24
0.02472,24
0.00533,48
0.00724,48
0.00492,24
0.14893,24
0.00155,24
0.03712,24
0.061,48
0.00131,48
7.5E-4,48
0.02536,48
0.17064,48
0.03953,24
1E-4,24
0.0528,48
0.03102,48
0.00157,48
0.03096,24
0.00283,48
4.3E-4,24
0.0038,48
0.02689,48
0.0023,48
0.09575,48
0.00675,24
0.00964,48
0.02975,12
0.13123,24
0.00188,24
0.19009,48
0.00329,6
0.00423,24
0.00352,48
0.00397,48
0.02026,48
0.00382,48
0.02942,48
0.01909,24
1.1E-4,48
5E-5,48
0.00144,48
1.8E-4,48
0.11734,48
0.03414,48
0.01696,48
1.3E-4,48
0.0031,48
1.9E-4,48
0.00986,24
4E-5,48
0.01462,48
3.5E-4,48
0.00301,48
0.00204,48
0.01989,12
0.00102,48
0.01141,48
0.01834,48
0.00415,48
0.09356,48
3.8E-4,48
0.00947,24
0.0103,48
0.00292,48
0.01333,48
0.00661,48
0.00286,24
1.5E-4,48
0.00266,48
9.7E-4,48
0.02043,48
4.8E-4,48
0.00742,48
0.00817,48
6E-5,48
0,48
0.03169,48
6E-5,48
0.00211,24
0.00594,24
1.6E-4,48
9E-4,48
0.00724,48
0.11038,24
7E-4,48
0.17365,48
5.2E-4,24
0.00965,48
0.01709,48
0.00412,24
0.00328,48
0.04331,48
2E-5,48
5.8E-4,24
0.0162,48
0.0214,24
0.01365,48
9.7E-4,48
0.00225,48
7.2E-4,48
0.01185,24
7E-4,48
6E-5,24
0.00665,48
5E-5,48
7.1E-4,48
0.02685,48
0.03984,48
0.03307,48
0.0049,48
0.00109,48
0.00205,48
0.021,48
0.00272,48
0.01414,48
0.00234,24
0.00224,48
0.00124,48
0.0147,48
0.01763,24
0.00193,48
0.01099,24
1.6E-4,48
0.00338,48
0.01071,24
9.5E-4,24
1E-5,48
0.00202,48
0.00495,48
0.03161,48
0.01004,48
0.00725,48
0.03889,48
0.00238,48
0.00447,48
2.4E-4,48
3E-5,48
0.01105,48
2E-5,48
0.00873,48
0.00517,48
4.5E-4,48
0.01284,24
0.0037,48
1.4E-4,48
3.7E-4,48
5E-5,48
0.00376,48
3.1E-4,48
0.00167,24
0.00341,24
0.00806,24
0.02703,24
0.00696,48
0.00816,48
0.00345,48
0.00405,48
0.01265,48
0.03318,48
0.00601,48
0.00298,48
0.00369,48
0.00384,48
0.03015,48
0.0038,48
1.5E-4,48
9.2E-4,48
0.00591,48
0.00117,48
0.00613,48
7.8E-4,6
0.01024,24
1.1E-4,24
0.01153,24
2E-5,48
0.00449,24
1E-5,48
6.7E-4,48
0.00298,48
1.1E-4,24
0.00303,24
3E-5,24
4.2E-4,48
0.00391,48
0.00538,48
0.00155,24
3.2E-4,48
0.01164,48
0.01203,48
0.00213,48
3.5E-4,48
6.2E-4,48
8.1E-4,48
5.8E-4,24
0.0104,48
3E-5,48
0.00695,48
0.01581,48
0.00203,24
0.00218,24
0.00109,24
0.00371,48
0.00214,48
1.1E-4,48
0.00987,24
0.01568,48
0.00261,48
0.00779,48
5.9E-4,48
0.00135,48
0.00407,48
4.2E-4,48
0.00131,48
0.01486,48
0.00355,48
0.0019,48
0.00198,48
0.0012,48
1E-5,48
0.00902,48
0.00449,48
1.3E-4,48
8E-5,48
2E-5,24
0.02112,24
3.4E-4,24
3E-5,48
0.00159,48
8E-5,48
0.00165,48
0.00106,48
0.00877,48
0.00129,6
0.00309,48
0.00112,48
0.00141,48
0.00198,48
0.004,24
0.00279,48
0,48
0.00889,12
0.0128,24
2.8E-4,48
0.00937,48
0.00411,24
5.3E-4,48
8.2E-4,24
0.00509,48
0.00248,48
0,48
0,48
7.2E-4,48
0.00647,48
8E-5,48
0.00634,48
0.00357,48
0.00315,48
0.00177,48
4E-4,48
5E-5,48
2E-4,48
1.5E-4,24
2E-5,48
0.00108,48
4E-4,48
0.00253,24
0.00355,48
1.4E-4,48
8.7E-4,48
0.00143,48
0.00176,48
7E-5,48
0.00608,48
0.00348,48
4E-5,48
5E-4,48
8E-5,48
7.3E-4,24
0.00491,48
2E-5,48
3.9E-4,48
0.00559,24
1.1E-4,48
1E-5,48
2E-5,48
1.6E-4,48
0.00106,48
0.00102,48
1.2E-4,48
8E-4,48
5.1E-4,48
4.8E-4,48
1E-5,48
5.3E-4,48
0.00224,24
2.4E-4,48
0.00489,48
3.3E-4,48
5.5E-4,48
4E-5,48
3.3E-4,6
2.8E-4,24
2.3E-4,48
1.6E-4,6
0.00393,48
2E-5,48
0.00173,24
0,48
1E-4,24
4E-4,24
1E-5,48
0.00185,48
4.2E-4,24
0.00259,48
8E-5,48
0.00146,48
0.0018,24
5.9E-4,48
0.00147,48
1E-5,48
9.8E-4,48
9.5E-4,48
0.0061,24
5E-5,48
4.9E-4,48
7E-5,24
0.00231,48
4.4E-4,48
0.00284,48
0.00456,24
0.00171,24
0.00226,24
2.6E-4,48
6.9E-4,48
0.00344,48
0.00114,48
3.7E-4,48
1.9E-4,48
1.8E-4,48
4E-5,48
6.7E-4,24
2.1E-4,24
7E-5,48
4E-5,24
4E-5,24
8.7E-4,48
1.6E-4,48
0.00145,48
0.00205,48
1.3E-4,24
2E-5,48
0.00372,48
0.0019,48
0.00144,24
5.3E-4,48
1.7E-4,48
0.00239,48
2E-5,48
5.7E-4,24
0.00167,48
0.00119,48
1E-5,48
8E-5,48
2.7E-4,48
2E-4,48
5E-5,24
0.00158,48
0.00244,48
3.9E-4,48
5E-4,48
2.5E-4,48
0.00101,48
0.00172,24
1.2E-4,48
2.8E-4,24
0.00135,24
0.0052,48
6E-5,48
0.00192,48
4E-5,48
0.00158,48
0.00316,48
7.8E-4,48
5.7E-4,48
7.3E-4,24
1.3E-4,24
7.6E-4,24
4.3E-4,24
0.00489,48
3E-5,48
9.9E-4,48
9.6E-4,48
6E-5,24
1.2E-4,24
2.7E-4,24
4.1E-4,24
4.4E-4,48
5.8E-4,24
0.00269,48
6E-5,48
1.4E-4,48
5.9E-4,48
0,48
4.5E-4,48
3E-4,48
8.1E-4,48
1.8E-4,24
2E-4,48
0.00828,48
0.00177,48
3.2E-4,24
0.01338,24
0,48
0.00124,48
7E-5,24
4.3E-4,48
3.2E-4,48
0.00756,48
2E-5,48
0.00125,48
2E-5,48
0.00176,48
2.3E-4,48
1E-5,48
0.00486,48
0.0019,48
0.00771,24
4E-5,48
1E-3,48
0,48
0.00336,48
0.00172,48
3.4E-4,48
3.4E-4,48
0.00156,48
8.1E-4,48
4.4E-4,48
1E-5,48
5E-5,48
2.4E-4,48
1E-5,48
0.00288,48
3E-5,48
1.2E-4,48
0.00409,24
2E-4,48
1.3E-4,48
0.00366,48
2.7E-4,48
1.2E-4,48
3.2E-4,48
0.00182,48
6E-5,48
6.8E-4,48
1E-4,48
3.6E-4,24
5E-5,48
0.00173,48
3E-5,48
0.00124,48
8E-5,48
0.00405,48
0.00111,24
5.3E-4,48
1.3E-4,48
3E-5,48
0.00441,48
6E-5,48
7E-5,24
3.8E-4,48
2.9E-4,48
0.00968,24
2.2E-4,48
2.6E-4,48
0,24
0.00366,48
2.1E-4,6
1.1E-4,48
6.7E-4,48
0.00358,48
8E-5,48
1.1E-4,24
0.00338,48
7.2E-4,48
0.0094,48
0.00151,48
8E-4,24
6.8E-4,48
0.00345,48
0.00126,48
3.4E-4,48
0.00172,48
6.9E-4,48
0.00158,48
6E-5,24
5E-5,48
6.6E-4,48
0.0028,24
3E-5,24
7.4E-4,48
0.00209,48
2.4E-4,48
0.00132,48
8E-5,48
0.0019,48
0.00159,48
1.9E-4,48
5.3E-4,48
7E-5,48
1E-5,48
9.9E-4,48
0.00477,48
0.00499,48
5E-5,48
2E-5,48
2.9E-4,48
0.0019,48
3E-5,48
0.00122,48
0.00257,48
0.00125,24
8.5E-4,48
0.00202,48
0.00569,48
6.2E-4,24
7.1E-4,48
4E-5,48
0.00285,48
0.00186,48
3.5E-4,48
5.5E-4,48
2E-4,48
3.5E-4,48
0.0011,48
9E-4,48
5.1E-4,48
0.00121,48
5.7E-4,48
9.3E-4,48
0.0037,48
2.2E-4,48
2.4E-4,24
0.00379,48
1E-5,48
1.5E-4,48
0.00239,24
4.8E-4,48
0.00138,48
0.00128,48
2.1E-4,48
5E-5,48
2.5E-4,48
6.9E-4,48
6.4E-4,48
0.00273,48
1.4E-4,48
0.0022,48
0.00164,48
7.9E-4,48
2.4E-4,48
0.00109,48
8.2E-4,48
0.00165,48
3E-5,48
1.5E-4,48
0.00321,48
3E-5,48
2E-5,48
2.9E-4,24
8E-5,48
0.0016,48
1E-5,48
1.1E-4,48
1E-5,24
2E-4,48
5.6E-4,24
1E-4,48
0.00203,24
0.00155,24
1E-4,48
5E-5,48
2E-5,24
6.5E-4,48
0.00141,48
0.00122,24
1E-4,24
7E-4,48
5.7E-4,48
6.5E-4,48
4.1E-4,48
3.2E-4,48
7.5E-4,48
0.00351,48
1.2E-4,48
0.00324,48
2.9E-4,24
0.00186,48
5.4E-4,24
3E-5,48
6.1E-4,48
6.6E-4,48
0,48
1.8E-4,48
2.7E-4,24
8E-5,48
6E-5,48
9.2E-4,48
5.2E-4,48
0.00216,48
0.00114,48
0.00554,24
0.0035,48
0.00126,48
0.00195,48
1.8E-4,48
1.8E-4,48
1.4E-4,24
0.00127,48
0.0019,48
0.00606,48
5E-5,48
8.4E-4,48
7.2E-4,48
1E-4,48
1E-5,48
3.9E-4,24
4.6E-4,48
2.2E-4,48
8.6E-4,48
4.3E-4,48
8E-5,48
0.00101,48
1E-5,24
1.1E-4,48
9.4E-4,48
3.9E-4,48
2.6E-4,48
0.00108,48
3.6E-4,24
0.00105,48
4.9E-4,48
2.1E-4,48
5E-5,48
0.00117,48
0.00221,48
2.4E-4,48
0.00558,48
0.00128,24
0.00137,48
9E-5,48
2.4E-4,24
2E-5,48
6E-4,48
0,48
7E-5,24
9.8E-4,48
0,48
1.3E-4,48
6E-5,48
0.00175,48
3.2E-4,48
5.3E-4,48
2.6E-4,48
0.00114,48
0,48
2.6E-4,24
2E-5,48
0.00287,48
6E-5,48
5.7E-4,48
9E-5,48
0.00291,48
1.4E-4,48
2.3E-4,48
5E-5,48
1.3E-4,48
1E-4,48
0.00147,48
1.4E-4,48
2E-5,48
1E-5,48
4.2E-4,48
0.00213,48
2E-5,6
8E-5,24
6E-4,48
6E-5,48
7.4E-4,48
6.2E-4,48
0.00193,48
2E-5,24
0.00125,48
0.0013,48
2E-5,48
3.2E-4,24
0.0057,48
1E-5,48
6.3E-4,48
3.4E-4,48
0,48
0.00125,48
0.00206,48
2.9E-4,48
7.2E-4,48
5.9E-4,24
3.8E-4,48
1.4E-4,48
0.00116,48
0.00111,48
3.5E-4,48
0.00169,24
5E-4,48
3.3E-4,48
0.00314,24
5E-5,48
1.8E-4,48
1E-4,24
9.3E-4,48
0.00157,24
9.2E-4,48
7.9E-4,48
5.6E-4,24
1.3E-4,48
1.7E-4,24
1.7E-4,48
2E-5,48
1.1E-4,48
0.00207,48
1E-5,48
3.7E-4,48
3.3E-4,48
4E-5,48
8.5E-4,48
0.00174,48
5.5E-4,48
0.0013,48
7.3E-4,48
0,48
0,48
6.5E-4,48
3.6E-4,48
0.002,48
3.1E-4,48
0.00339,48
5E-5,48
2.6E-4,48
4E-4,48
1.6E-4,48
3E-5,48
3E-5,48
1E-5,48
4E-5,48
1.1E-4,48
0.00178,24
2E-5,48
0,48
0.00227,48
6E-5,48
8.9E-4,24
0.00687,48
4.8E-4,48
5E-5,48
9.1E-4,48
9E-4,48
9.4E-4,48
1.8E-4,48
0.00253,24
2E-5,48
0.00201,48
0.00168,48
0,48
2.3E-4,48
2E-5,48
0.00188,24
7E-5,48
0,48
6.2E-4,48
5E-5,48
3.4E-4,48
4E-5,48
0.00125,48
1E-5,48
4.8E-4,48
0.00149,48
0,48
1E-5,24
3.7E-4,48
7.8E-4,48
0.00271,48
2.2E-4,48
1E-3,48
1E-5,24
0.0012,24
4E-4,48
1.4E-4,48
0.00118,48
0.00105,24
3.1E-4,48
4E-5,48
0.00237,48
3E-5,48
0.00189,48
1.8E-4,48
6.4E-4,24
0,48
5.4E-4,24
8.5E-4,48
0.00107,48
0.0023,48
2.1E-4,6
0,48
3.3E-4,48
2E-5,24
5.4E-4,48
0.00115,48
5.7E-4,48
7E-5,48
1.2E-4,24
0.00276,48
1E-5,48
6.6E-4,48
2.8E-4,48
1E-5,48
9.5E-4,48
2E-5,48
6E-5,48
1.8E-4,24
0.00157,48
1E-4,48
7.5E-4,48
8E-5,48
1.6E-4,48
0,48
3.4E-4,48
1E-5,48
0,48
0,48
1E-4,48
4.5E-4,48
4E-4,48
0.00117,48
7E-5,24
1E-3,48
7E-5,48
2E-4,48
2.3E-4,48
2E-5,48
7E-5,48
0.00376,48
6.6E-4,48
5.7E-4,48
2E-5,48
6.1E-4,24
0,48
0.00122,48
4.6E-4,48
0.0023,48
0,48
2.9E-4,24
0,48
0,48
2E-5,48
5E-5,48
4.6E-4,48
9E-5,48
1.1E-4,48
0.00363,48
4E-5,48
5E-5,24
0.00265,48
2.6E-4,48
6E-5,24
2E-5,48
9E-5,48
0.00444,48
3E-5,48
7E-5,48
2.6E-4,48
3E-5,48
0,48
0.00183,48
1.7E-4,48
9.4E-4,48
3.9E-4,24
1E-5,48
2E-5,48
0,48
0.00126,24
1E-5,48
3E-5,24
2.9E-4,48
0.00142,24
3E-5,24
1.6E-4,48
0,48
0,48
2.7E-4,48
0.00142,48
1E-5,24
7.1E-4,24
1E-5,24
3.7E-4,48
1E-5,48
0.00213,48
1E-5,48
2.7E-4,48
3.2E-4,48
2.6E-4,48
0.00109,48
1E-4,48
9E-5,48
3E-5,24
0.00176,48
7.7E-4,48
1.1E-4,48
0.00107,48
2.6E-4,24
2.3E-4,48
4E-5,24
4E-5,48
9E-5,48
0.00524,48
9.2E-4,48
1.3E-4,24
2E-5,48
3.7E-4,48
0.00113,48
2E-5,48
1E-5,48
6.5E-4,48
1E-5,48
5.3E-4,48
7E-5,48
0.0018,48
1E-5,48
3.1E-4,48
2.4E-4,48
6E-5,48
1E-5,24
6E-5,48
3E-5,48
6.4E-4,48
1E-5,48
6.9E-4,48
1.2E-4,48
3E-5,48
0.00205,48
4E-5,48
3E-5,48
0.00183,48
0,48
0,48
0,48
6.5E-4,24
3.1E-4,48
2E-5,48
2E-5,48
1E-4,48
4.8E-4,48
8.6E-4,48
7.4E-4,48
1.1E-4,24
3.7E-4,48
0.00235,48
5.8E-4,48
5.1E-4,48
3E-5,24
0.00183,48
8E-5,48
1E-5,48
1.5E-4,48
4E-5,48
2.5E-4,48
8E-5,48
6E-5,48
9.2E-4,48
4E-5,48
0.00339,48
2.8E-4,48
1E-5,48
0.00141,48
0,24
3E-4,48
1E-5,48
1.1E-4,48
7.4E-4,48
7E-5,48
1.1E-4,48
1.4E-4,48
7E-5,48
0,48
9.9E-4,48
0.00282,48
0.00196,24
0.00463,48
2.7E-4,48
2E-5,48
0.00539,48
0.00253,24
4.7E-4,48
8.1E-4,48
0.002,24
3.6E-4,48
0.00281,48
9.3E-4,24
2.2E-4,48
7E-5,48
5.3E-4,48
0.00357,48
0.00125,48
4E-5,48
1.9E-4,48
8E-5,48
5.1E-4,48
9E-5,48
9.6E-4,48
1E-5,48
6.3E-4,48
8E-5,48
6.8E-4,48
1E-5,24
2.6E-4,24
8E-4,48
4E-5,48
8E-5,48
1.1E-4,48
0.00256,48
4E-5,48
4E-5,48
4.1E-4,48
7.7E-4,48
2.3E-4,48
2.4E-4,48
3.7E-4,48
3E-5,48
0.00129,48
4E-5,48
1E-5,48
1E-5,48
1E-5,48
7E-5,48
2.5E-4,48
1.3E-4,24
1E-5,48
2E-5,48
8E-5,48
5.1E-4,48
4.1E-4,48
3E-4,48
6E-5,48
1E-5,48
8E-5,48
7E-5,48
7E-5,48
7E-5,24
0.00116,48
3.6E-4,48
4.4E-4,24
7.4E-4,48
5.3E-4,48
5E-5,48
9.8E-4,48
1.8E-4,48
5.8E-4,48
2.1E-4,48
0.00181,48
1.7E-4,48
3.8E-4,48
9E-5,48
3E-4,24
2E-5,24
6.6E-4,24
0,48
7.8E-4,48
5E-5,48
1E-5,48
1E-5,48
3.7E-4,48
1.3E-4,24
6E-5,48
1.8E-4,48
3E-5,48
0.00168,12
2.8E-4,48
6E-5,48
2.4E-4,48
5E-5,48
0.00985,48
2E-5,24
9E-5,48
0.00229,48
0.00399,48
3.7E-4,48
3.7E-4,48
2.6E-4,48
2E-5,48
9.4E-4,48
1E-5,24
1.7E-4,24
5.5E-4,48
3.5E-4,48
1E-5,48
6.9E-4,48
2.5E-4,48
4E-5,48
4E-5,48
9E-5,48
0.00144,48
0.00109,48
2.8E-4,48
0.00118,24
2.3E-4,24
9.6E-4,24
8E-4,48
1E-5,48
2.5E-4,24
4E-5,48
8.7E-4,48
1.1E-4,48
2.6E-4,48
9E-5,48
2.1E-4,48
5E-5,48
3E-5,48
4E-5,24
5.9E-4,48
1E-5,24
7.1E-4,48
2E-4,24
2E-5,48
1.9E-4,48
1.4E-4,48
2E-5,48
0.00272,48
7E-5,24
0.00154,48
1.9E-4,48
2.2E-4,48
1E-5,48
1.2E-4,48
3E-5,48
1.5E-4,48
3E-5,24
0.00129,48
8E-4,48
0,48
0.00129,48
1.8E-4,48
3.5E-4,48
1E-4,48
2.3E-4,48
2.3E-4,48
5.3E-4,48
1E-5,48
3E-5,24
6E-5,48
2.5E-4,48
5.8E-4,48
6E-5,48
1.8E-4,48
0,48
2E-5,48
8E-5,24
0.00255,48
6.3E-4,48
1E-5,48
8.5E-4,48
1.4E-4,24
0.00228,48
1E-5,24
1E-5,48
3E-5,24
0.00328,48
3.4E-4,48
3E-4,48
0.00115,48
8.1E-4,48
3E-5,48
1E-5,24
0,48
3.3E-4,48
0.00256,48
2E-5,48
1E-4,48
5E-5,48
0.00149,48
2.7E-4,48
2E-5,24
1.5E-4,48
0.00188,48
4.1E-4,48
6E-4,48
1.1E-4,48
2.9E-4,48
1.3E-4,48
4.9E-4,48
0.00182,48
0,24
1E-5,48
5E-5,48
0,48
3E-5,48
1.2E-4,24