File: 2021/xrd/baseline_correction/mof170.ASC
  4.010        0
  4.036    -2435
  4.062    -3716
  4.088    -4597
  4.114    -4355
  4.140    -4657
  4.166    -4649
  4.192    -4208
  4.218    -2472
  4.244    -1374
  4.270      697
  4.296     3254
  4.322     7160
  4.348    11644
  4.374    18070
  4.400    25656
  4.426    36395
  4.452    50630
  4.478    70277
  4.504    96623
  4.530   124344
  4.556   144405
  4.582   130166
  4.608    76841
  4.634    36762
  4.660    19068
  4.686    11758
  4.712     7660
  4.738     5116
  4.764     3177
  4.790     2091
  4.816     1358
  4.842      657
  4.868      299
  4.894      141
  4.920      155
  4.946       49
  4.972     -207
  4.998     -195
  5.024     -150
  5.050     -163
  5.076     -206
  5.102     -352
  5.128     -297
  5.154      -16
  5.180       37
  5.206     -140
  5.232       30
  5.258      110
  5.284      -36
  5.310       -2
  5.336       43
  5.362       56
  5.388       88
  5.414       18
  5.440      -83
  5.466     -125
  5.492     -154
  5.518     -207
  5.544       55
  5.570      254
  5.596       88
  5.622       48
  5.648     -118
  5.674     -114
  5.700      114
  5.726       97
  5.752      147
  5.778        0
  5.804      -65
  5.830     -146
  5.856     -112
  5.882       97
  5.908       36
  5.934      -28
  5.960     -121
  5.986      -20
  6.012     -143
  6.038       23
  6.064      -66
  6.090      -11
  6.116      395
  6.142      710
  6.168      987
  6.194     1785
  6.220     2355
  6.246     3496
  6.272     5026
  6.298     7321
  6.324    10360
  6.350    14883
  6.376    21229
  6.402    29238
  6.428    37329
  6.454    42409
  6.480    37051
  6.506    20774
  6.532    10077
  6.558     6457
  6.584     4715
  6.610     3532
  6.636     2772
  6.662     2313
  6.688     1824
  6.714     1394
  6.740     1160
  6.766      788
  6.792      772
  6.818      450
  6.844      530
  6.870      657
  6.896      522
  6.922      470
  6.948      282
  6.974      390
  7.000      105
  7.026      133
  7.052      298
  7.078      162
  7.104      129
  7.130      152
  7.156       69
  7.182      -76
  7.208      188
  7.234      213
  7.260       40
  7.286     -144
  7.312       21
  7.338     -114
  7.364      -46
  7.390       32
  7.416     -125
  7.442     -184
  7.468       78
  7.494      139
  7.520      159
  7.546      250
  7.572      521
  7.598      741
  7.624     1081
  7.650     1486
  7.676     1970
  7.702     2908
  7.728     4187
  7.754     6076
  7.780     9017
  7.806    13423
  7.832    19508
  7.858    26945
  7.884    33916
  7.910    36880
  7.936    30635
  7.962    18083
  7.988     8926
  8.014     5045
  8.040     3400
  8.066     2457
  8.092     1760
  8.118     1271
  8.144      926
  8.170      804
  8.196      568
  8.222      360
  8.248      132
  8.274      184
  8.300      225
  8.326       35
  8.352       36
  8.378       42
  8.404      -73
  8.430       -1
  8.456      -19
  8.482       64
  8.508      -22
  8.534       -5
  8.560      109
  8.586      -27
  8.612       19
  8.638       65
  8.664       53
  8.690     -135
  8.716       39
  8.742       45
  8.768      129
  8.794       97
  8.820      225
  8.846      454
  8.872      485
  8.898      839
  8.924     1121
  8.950     1578
  8.976     2314
  9.002     3776
  9.028     5771
  9.054     8810
  9.080    12553
  9.106    16414
  9.132    18950
  9.158    17325
  9.184    10627
  9.210     4832
  9.236     2686
  9.262     1763
  9.288     1209
  9.314      892
  9.340      565
  9.366      208
  9.392      425
  9.418      415
  9.444      218
  9.470      269
  9.496      111
  9.522       51
  9.548      301
  9.574       66
  9.600       33
  9.626      -62
  9.652     -137
  9.678      297
  9.704       97
  9.730      215
  9.756      152
  9.782      159
  9.808     -163
  9.834     -135
  9.860      114
  9.886      111
  9.912       -1
  9.938       21
  9.964       53
  9.990       96
 10.016      197
 10.042       65
 10.068      268
 10.094      333
 10.120      504
 10.146      866
 10.172     1336
 10.198     1596
 10.224     1659
 10.250     1389
 10.276      905
 10.302      346
 10.328       41
 10.354       82
 10.380      184
 10.406       13
 10.432      -78
 10.458      -29
 10.484       32
 10.510       81
 10.536      -35
 10.562      -60
 10.588       18
 10.614        3
 10.640       12
 10.666       70
 10.692        6
 10.718      -62
 10.744       12
 10.770       30
 10.796       -7
 10.822       -8
 10.848      -13
 10.874       88
 10.900      122
 10.926      133
 10.952      204
 10.978      332
 11.004      622
 11.030      959
 11.056     1700
 11.082     2626
 11.108     4153
 11.134     6283
 11.160     8713
 11.186    10710
 11.212    10771
 11.238     7554
 11.264     4008
 11.290     1899
 11.316     1199
 11.342      742
 11.368      359
 11.394      297
 11.420      124
 11.446      281
 11.472      163
 11.498     -112
 11.524      -30
 11.550     -175
 11.576       46
 11.602     -101
 11.628       25
 11.654      146
 11.680     -120
 11.706      -44
 11.732      -38
 11.758       98
 11.784       85
 11.810     -125
 11.836     -134
 11.862       73
 11.888       -8
 11.914      127
 11.940     -148
 11.966       62
 11.992       59
 12.018     -202
 12.044      -56
 12.070      -99
 12.096     -202
 12.122     -183
 12.148      -49
 12.174       -8
 12.200      -57
 12.226      105
 12.252       -9
 12.278       -9
 12.304      -48
 12.330      -73
 12.356        7
 12.382      -42
 12.408        8
 12.434       54
 12.460      -20
 12.486      -79
 12.512       19
 12.538       53
 12.564      170
 12.590       29
 12.616      -51
 12.642       83
 12.668       48
 12.694      -31
 12.720     -135
 12.746      -71
 12.772      -93
 12.798     -159
 12.824     -104
 12.850      -98
 12.876     -131
 12.902      -25
 12.928      117
 12.954      134
 12.980       65
 13.006      -19
 13.032       88
 13.058      135
 13.084      -25
 13.110       32
 13.136       11
 13.162      -40
 13.188      -20
 13.214       -2
 13.240       21
 13.266        6
 13.292       84
 13.318       12
 13.344      -11
 13.370        5
 13.396      -40
 13.422      108
 13.448      208
 13.474      199
 13.500      273
 13.526      439
 13.552      599
 13.578      926
 13.604     1608
 13.630     2752
 13.656     4402
 13.682     6543
 13.708     8389
 13.734     9038
 13.760     7600
 13.786     4718
 13.812     2529
 13.838     1371
 13.864      858
 13.890      437
 13.916      483
 13.942      258
 13.968      159
 13.994      115
 14.020     -149
 14.046      112
 14.072       21
 14.098      -35
 14.124        8
 14.150      -29
 14.176      -62
 14.202     -105
 14.228      -93
 14.254      -99
 14.280     -114
 14.306       50
 14.332       71
 14.358        7
 14.384       29
 14.410     -100
 14.436     -161
 14.462       69
 14.488      -46
 14.514      -24
 14.540       10
 14.566        5
 14.592      -45
 14.618       49
 14.644     -125
 14.670      -63
 14.696       18
 14.722      -27
 14.748      -34
 14.774      -33
 14.800      103
 14.826      -33
 14.852       61
 14.878      118
 14.904       -1
 14.930       28
 14.956       31
 14.982      -86
 15.008      -42
 15.034       57
 15.060       95
 15.086      -29
 15.112      -91
 15.138      -44
 15.164        5
 15.190        1
 15.216       48
 15.242      -60
 15.268       52
 15.294      -37
 15.320     -104
 15.346      -99
 15.372       46
 15.398      -52
 15.424        4
 15.450       70
 15.476      -84
 15.502      -15
 15.528       31
 15.554      -26
 15.580        5
 15.606       39
 15.632      -51
 15.658      -46
 15.684       13
 15.710       29
 15.736       34
 15.762       48
 15.788      124
 15.814      309
 15.840      539
 15.866      568
 15.892      457
 15.918      389
 15.944      203
 15.970       43
 15.996       14
 16.022      -89
 16.048      -42
 16.074       21
 16.100       60
 16.126       99
 16.152      -25
 16.178      -27
 16.204      -47
 16.230       86
 16.256       42
 16.282      -28
 16.308       20
 16.334      -32
 16.360      -67
 16.386        8
 16.412      -31
 16.438       -9
 16.464      121
 16.490       27
 16.516       18
 16.542       53
 16.568      109
 16.594      -56
 16.620       44
 16.646      -72
 16.672       -1
 16.698      151
 16.724       23
 16.750      -73
 16.776      -77
 16.802      -43
 16.828      -23
 16.854      120
 16.880       51
 16.906     -117
 16.932     -124
 16.958       -2
 16.984       47
 17.010       40
 17.036     -168
 17.062        0
 17.088      152
 17.114      131
 17.140      205
 17.166      303
 17.192       -2
 17.218     -122
 17.244       81
 17.270      209
 17.296       94
 17.322       10
 17.348      -29
 17.374      -24
 17.400      -94
 17.426       21
 17.452     -138
 17.478     -134
 17.504       42
 17.530      -74
 17.556      -14
 17.582       38
 17.608       -4
 17.634       -7
 17.660       61
 17.686       71
 17.712      -56
 17.738       59
 17.764      156
 17.790       32
 17.816     -100
 17.842        1
 17.868      -12
 17.894      -30
 17.920        8
 17.946      -19
 17.972       23
 17.998        9
 18.024       -8
 18.050       -3
 18.076      -69
 18.102      112
 18.128      248
 18.154       55
 18.180       22
 18.206      153
 18.232      207
 18.258      245
 18.284      373
 18.310      467
 18.336      530
 18.362      534
 18.388      450
 18.414      241
 18.440       36
 18.466      -10
 18.492       -7
 18.518       38
 18.544       40
 18.570      -41
 18.596      -41
 18.622       15
 18.648      -87
 18.674     -147
 18.700      -15
 18.726      -56
 18.752      -74
 18.778      179
 18.804      299
 18.830      460
 18.856      879
 18.882     1265
 18.908     1538
 18.934     1443
 18.960     1097
 18.986      690
 19.012      545
 19.038      261
 19.064       91
 19.090      106
 19.116      221
 19.142       47
 19.168       10
 19.194      140
 19.220     -121
 19.246        4
 19.272       29
 19.298       50
 19.324      163
 19.350       65
 19.376       68
 19.402       37
 19.428       78
 19.454      114
 19.480      113
 19.506       35
 19.532       39
 19.558      -55
 19.584     -140
 19.610     -103
 19.636       59
 19.662       46
 19.688       86
 19.714     -196
 19.740       -3
 19.766      119
 19.792       25
 19.818      -58
 19.844      105
 19.870     -144
 19.896      -21
 19.922      185
 19.948      307
 19.974      499
 20.000      341
 20.026      299
 20.052      336
 20.078      171
 20.104       63
 20.130       -4
 20.156      -55
 20.182       38
 20.208       83
 20.234       79
 20.260       56
 20.286       40
 20.312      -27
 20.338       51
 20.364      -35
 20.390      -35
 20.416      103
 20.442      257
 20.468      531
 20.494      978
 20.520     1218
 20.546     1280
 20.572      999
 20.598      493
 20.624      136
 20.650       10
 20.676       34
 20.702     -100
 20.728     -125
 20.754      -53
 20.780      -70
 20.806      -23
 20.832      -22
 20.858        7
 20.884      125
 20.910      149
 20.936      347
 20.962      817
 20.988     1479
 21.014     2194
 21.040     2655
 21.066     2503
 21.092     1916
 21.118     1247
 21.144      671
 21.170      368
 21.196      240
 21.222      251
 21.248      103
 21.274      -92
 21.300       21
 21.326      106
 21.352      -14
 21.378      -38
 21.404        9
 21.430      -48
 21.456      288
 21.482      538
 21.508      644
 21.534      772
 21.560      831
 21.586      780
 21.612      451
 21.638      237
 21.664      103
 21.690       82
 21.716       75
 21.742      160
 21.768       35
 21.794      -29
 21.820     -106
 21.846        5
 21.872       47
 21.898      -80
 21.924      -69
 21.950      -65
 21.976      -26
 22.002      -34
 22.028       97
 22.054      -62
 22.080      -55
 22.106      -49
 22.132     -156
 22.158      -68
 22.184      -71
 22.210      -52
 22.236      -58
 22.262       85
 22.288      -47
 22.314       82
 22.340       -9
 22.366       86
 22.392       79
 22.418      362
 22.444      399
 22.470      691
 22.496      954
 22.522     1222
 22.548      943
 22.574      728
 22.600      541
 22.626      211
 22.652      174
 22.678      112
 22.704       51
 22.730       38
 22.756      -56
 22.782      -71
 22.808     -127
 22.834     -114
 22.860       -5
 22.886       36
 22.912       71
 22.938      142
 22.964      135
 22.990      207
 23.016      123
 23.042      117
 23.068      134
 23.094      234
 23.120      -31
 23.146      -70
 23.172       39
 23.198      -17
 23.224       19
 23.250      137
 23.276      112
 23.302      104
 23.328      246
 23.354      559
 23.380      865
 23.406     1245
 23.432     1611
 23.458     1696
 23.484     1413
 23.510     1049
 23.536      681
 23.562      391
 23.588      248
 23.614      112
 23.640       74
 23.666       26
 23.692      -64
 23.718      -26
 23.744      123
 23.770      202
 23.796       98
 23.822        8
 23.848       51
 23.874       99
 23.900      104
 23.926      168
 23.952      128
 23.978      167
 24.004      172
 24.030        0
 24.056     -133
 24.082      -21
 24.108      -11
 24.134       17
 24.160       42
 24.186      -12
 24.212       25
 24.238      119
 24.264       71
 24.290      113
 24.316       86
 24.342      112
 24.368      188
 24.394      -20
 24.420        0
 24.446       79
 24.472      245
 24.498        0
 24.524      -53
 24.550       22
 24.576       99
 24.602      -29
 24.628      -82
 24.654      106
 24.680      220
 24.706      218
 24.732      291
 24.758      595
 24.784      392
 24.810      561
 24.836      259
 24.862      138
 24.888      122
 24.914      -12
 24.940      194
 24.966      -69
 24.992     -113
 25.018       -9
 25.044      -16
 25.070       74
 25.096        3
 25.122        4
 25.148      -61
 25.174      154
 25.200      263
 25.226      492
 25.252      338
 25.278      226
 25.304       22
 25.330      167
 25.356      112
 25.382      -30
 25.408       39
 25.434      -16
 25.460      -90
 25.486       57
 25.512      -10
 25.538       23
 25.564      -91
 25.590       93
 25.616      207
 25.642      140
 25.668       88
 25.694       59
 25.720        1
 25.746        6
 25.772       11
 25.798       16
 25.824      -74
 25.850       76
 25.876       68
 25.902      -42
 25.928      -62
 25.954        0
 25.980       23
 26.006      -17
 26.032       52
 26.058      -47
 26.084      -88
 26.110      -45
 26.136       23
 26.162       88
 26.188       67
 26.214        8
 26.240      -45
 26.266      -17
 26.292       39
 26.318       96
 26.344       87
 26.370      109
 26.396      147
 26.422      129
 26.448      258
 26.474      189
 26.500       32
 26.526      199
 26.552      318
 26.578      157
 26.604       35
 26.630       54
 26.656       24
 26.682       14
 26.708      -23
 26.734       -7
 26.760      168
 26.786      248
 26.812      403
 26.838      540
 26.864      659
 26.890      675
 26.916      567
 26.942      452
 26.968      222
 26.994      213
 27.020       51
 27.046      -58
 27.072      -89
 27.098     -115
 27.124     -144
 27.150     -100
 27.176      -35
 27.202      168
 27.228      255
 27.254      495
 27.280      526
 27.306      782
 27.332      398
 27.358      230
 27.384       46
 27.410       42
 27.436      -75
 27.462     -120
 27.488      -86
 27.514      -95
 27.540      -73
 27.566       -4
 27.592      -81
 27.618      199
 27.644      172
 27.670       72
 27.696        4
 27.722       36
 27.748      -25
 27.774        8
 27.800     -115
 27.826     -207
 27.852       52
 27.878        9
 27.904       -9
 27.930      219
 27.956      230
 27.982      201
 28.008      597
 28.034      903
 28.060      901
 28.086      898
 28.112      730
 28.138      537
 28.164      274
 28.190      163
 28.216      117
 28.242       87
 28.268      -78
 28.294      -69
 28.320       43
 28.346      -37
 28.372       36
 28.398      107
 28.424      144
 28.450      327
 28.476      175
 28.502      134
 28.528      112
 28.554       81
 28.580       40
 28.606      -96
 28.632     -104
 28.658     -131
 28.684     -109
 28.710     -114
 28.736     -123
 28.762      -92
 28.788      -11
 28.814       51
 28.840      -13
 28.866      -50
 28.892      -39
 28.918      -60
 28.944      -38
 28.970      -59
 28.996       -5
 29.022       71
 29.048       -9
 29.074      -26
 29.100      -41
 29.126       18
 29.152      132
 29.178      208
 29.204      195
 29.230       69
 29.256        9
 29.282      -42
 29.308        9
 29.334        5
 29.360      -33
 29.386      -77
 29.412     -153
 29.438      -64
 29.464       11
 29.490      278
 29.516      578
 29.542      756
 29.568      926
 29.594      885
 29.620      837
 29.646      576
 29.672      465
 29.698      232
 29.724      180
 29.750       83
 29.776       -5
 29.802       13
 29.828       96
 29.854      -73
 29.880     -147
 29.906      -51
 29.932     -165
 29.958      203
 29.984        7
 30.010     -120
 30.036      -10
 30.062     -161
 30.088       18
 30.114     -130
 30.140       27
 30.166       35
 30.192      -93
 30.218      -39
 30.244       15
 30.270      179
 30.296        7
 30.322      -31
 30.348      168
 30.374      -32
 30.400       91
 30.426       90
 30.452     -156
 30.478       26
 30.504      132
 30.530        5
 30.556      131
 30.582       91
 30.608      404
 30.634      255
 30.660      411
 30.686      351
 30.712      128
 30.738      242
 30.764      160
 30.790      159
 30.816      144
 30.842      115
 30.868       36
 30.894      -13
 30.920       21
 30.946      -33
 30.972       38
 30.998       28
 31.024       46
 31.050       61
 31.076      130
 31.102       58
 31.128       42
 31.154       24
 31.180      -62
 31.206      -43
 31.232      -13
 31.258      -11
 31.284       -4
 31.310       27
 31.336      120
 31.362      120
 31.388       65
 31.414       70
 31.440       93
 31.466      103
 31.492      115
 31.518      -21
 31.544       -4
 31.570       92
 31.596       28
 31.622        9
 31.648      -61
 31.674      -51
 31.700       15
 31.726      -33
 31.752      -46
 31.778      -11
 31.804      -78
 31.830      -22
 31.856       44
 31.882      -14
 31.908      -21
 31.934      -39
 31.960      -49
 31.986       -8
 32.012      -19
 32.038      -30
 32.064       58
 32.090       31
 32.116       -4
 32.142      -97
 32.168       29
 32.194      115
 32.220       -7
 32.246      -13
 32.272      -98
 32.298       53
 32.324       -2
 32.350       22
 32.376       -6
 32.402       20
 32.428      106
 32.454       49
 32.480      -15
 32.506      -16
 32.532       38
 32.558      -34
 32.584       38
 32.610       40
 32.636       18
 32.662      206
 32.688      315
 32.714      424
 32.740      479
 32.766      320
 32.792      320
 32.818      182
 32.844      257
 32.870      135
 32.896      -73
 32.922       36
 32.948      130
 32.974      110
 33.000       31
 33.026       30
 33.052      129
 33.078      158
 33.104      269
 33.130      106
 33.156       78
 33.182      -84
 33.208      -33
 33.234     -120
 33.260      102
 33.286       42
 33.312      -38
 33.338        8
 33.364      -24
 33.390      -30
 33.416       -3
 33.442      -10
 33.468      -24
 33.494      -23
 33.520       36
 33.546       -1
 33.572      -39
 33.598      -72
 33.624      -43
 33.650       -7
 33.676       -2
 33.702      -46
 33.728       30
 33.754       31
 33.780      -40
 33.806      -11
 33.832      -17
 33.858      -83
 33.884     -118
 33.910      -32
 33.936       30
 33.962       27
 33.988       13
 34.014       -7
 34.040      171
 34.066      368
 34.092      306
 34.118      305
 34.144      295
 34.170      184
 34.196       83
 34.222      -53
 34.248      -35
 34.274       20
 34.300      -28
 34.326      -23
 34.352      -82
 34.378     -147
 34.404        1
 34.430       59
 34.456      -14
 34.482      -15
 34.508       16
 34.534      -85
 34.560     -124
 34.586      -71
 34.612      -92
 34.638      -27
 34.664       62
 34.690       21
 34.716      -77
 34.742      -65
 34.768       16
 34.794       34
 34.820       -8
 34.846      -92
 34.872      -45
 34.898      -15
 34.924       85
 34.950       78
 34.976       99
 35.002       88
 35.028      215
 35.054      251
 35.080       70
 35.106       40
 35.132      -92
 35.158      101
 35.184      -90
 35.210     -109
 35.236      -79
 35.262      -35
 35.288       29
 35.314       -9
 35.340       67
 35.366      -60
 35.392      -44
 35.418       59
 35.444      -54
 35.470     -181
 35.496      -27
 35.522      -16
 35.548        7
 35.574       47
 35.600      151
 35.626      123
 35.652      170
 35.678       91
 35.704       86
 35.730        8
 35.756       70
 35.782      -24
 35.808      -36
 35.834       62
 35.860       21
 35.886      -23
 35.912      -11
 35.938       47
 35.964       81
 35.990      104
 36.016       60
 36.042       20
 36.068       -8
 36.094      -75
 36.120       18
 36.146      -67
 36.172      -12
 36.198        7
 36.224      -29
 36.250       39
 36.276        4
 36.302       13
 36.328       14
 36.354      -64
 36.380       89
 36.406       76
 36.432      -14
 36.458       -6
 36.484      -28
 36.510      -27
 36.536       19
 36.562        3
 36.588       31
 36.614       58
 36.640       12
 36.666        3
 36.692       60
 36.718      107
 36.744       24
 36.770      -48
 36.796       -6
 36.822      -27
 36.848      -18
 36.874       86
 36.900       26
 36.926      -10
 36.952      134
 36.978      123
 37.004       95
 37.030      200
 37.056      189
 37.082       33
 37.108      -46
 37.134      -26
 37.160      -48
 37.186      -18
 37.212      -17
 37.238      -64
 37.264       24
 37.290      125
 37.316       45
 37.342        1
 37.368      -21
 37.394       35
 37.420       82
 37.446       52
 37.472      122
 37.498      169
 37.524      189
 37.550       95
 37.576       92
 37.602       96
 37.628      -14
 37.654       12
 37.680        9
 37.706      -49
 37.732       54
 37.758       88
 37.784       28
 37.810      130
 37.836       64
 37.862       41
 37.888      129
 37.914       34
 37.940      -23
 37.966      -39
 37.992      -49
 38.018     -186
 38.044     -165
 38.070       20
 38.096       79
 38.122        0
 38.148       23
 38.174       -6
 38.200      -19
 38.226      -87
 38.252      169
 38.278       73
 38.304      -44
 38.330      -61
 38.356       19
 38.382       85
 38.408      -33
 38.434      -20
 38.460      -40
 38.486        8
 38.512      -27
 38.538      -59
 38.564       -9
 38.590       62
 38.616      200
 38.642      111
 38.668      105
 38.694      246
 38.720      203
 38.746      120
 38.772      113
 38.798       94
 38.824       70
 38.850      -26
 38.876      -32
 38.902       29
 38.928        2
 38.954      -54
 38.980      -55
 39.006       -1
 39.032       22
 39.058       -7
 39.084      -32
 39.110       34
 39.136       15
 39.162      -34
 39.188      -39
 39.214       -9
 39.240       24
 39.266       55
 39.292       -7
 39.318      -71
 39.344       -5
 39.370       39
 39.396       54
 39.422       44
 39.448      -49
 39.474      -30
 39.500       83
 39.526       96
 39.552       52
 39.578       47
 39.604       59
 39.630      -30
 39.656      -36
 39.682       40
 39.708       34
 39.734       70
 39.760       95
 39.786      100
 39.812       91
 39.838       56
 39.864      152
 39.890      112
 39.916      -58
 39.942       89
 39.968        1