File: 2021/xrd/baseline_correction/mof170.CSV
No.,Pos. [°2Th.],Iobs [cts],Icalc [cts],Iback [cts],CT [s],ESD
1,4.0099,0.0000, , ,195.2635,255.0640
3,4.0619,-3715.51, , ,195.2635,244.9495
5,4.1139,-4354.92, , ,195.2635,240.8714
7,4.1659,-4648.75, , ,195.2635,237.4517
9,4.2179,-2471.85, , ,195.2635,239.2036
11,4.2699,696.8266, , ,195.2635,242.9330
13,4.3219,7160.1, , ,195.2635,253.1411
15,4.3739,18069.8, , ,195.2635,271.2763
17,4.4259,36395.1, , ,195.2635,300.8601
19,4.4779,70276.9, , ,195.2635,350.7126
21,4.5299,124344, , ,195.2635,419.1269
23,4.5819,130166, , ,195.2635,424.3702
25,4.6339,36761.7, , ,195.2635,292.0379
27,4.6859,11757.8, , ,195.2635,242.6580
29,4.7379,5116.27, , ,195.2635,225.4182
31,4.7899,2090.74, , ,195.2635,215.2465
33,4.8419,657.1327, , ,195.2635,208.4243
35,4.8939,141.0877, , ,195.2635,203.6366
37,4.9459,49.0297, , ,195.2635,199.7975
39,4.9979,-194.7407, , ,195.2635,196.6105
41,5.0499,-163.3397, , ,195.2635,194.0813
43,5.1019,-351.5861, , ,195.2635,190.9444
45,5.1539,-15.9705, , ,195.2635,189.1449
47,5.2059,-139.5594, , ,195.2635,186.9516
49,5.2579,109.9083, , ,195.2635,186.5938
51,5.3099,-1.6697, , ,195.2635,185.2635
53,5.3619,56.2152, , ,195.2635,184.3836
55,5.4139,18.1884, , ,195.2635,183.2381
57,5.4659,-124.8443, , ,195.2635,181.8334
59,5.5179,-207.2659, , ,195.2635,180.5857
61,5.5699,254.3482, , ,195.2635,180.8397
63,5.6219,47.5585, , ,195.2635,179.2385
65,5.6739,-113.9776, , ,195.2635,178.0606
67,5.7259,97.4094, , ,195.2635,178.2360
69,5.7779,0.3218, , ,195.2635,177.5446
71,5.8299,-146.2912, , ,195.2635,176.7105
73,5.8819,97.1220, , ,195.2635,176.9777
75,5.9339,-27.8192, , ,195.2635,176.6699
77,5.9859,-19.9833, , ,195.2635,176.7375
79,6.0379,22.6420, , ,195.2635,176.9034
81,6.0899,-11.1289, , ,195.2635,176.8534
83,6.1419,709.7850, , ,195.2635,178.8541
85,6.1939,1784.51, , ,195.2635,181.7387
87,6.2459,3495.65, , ,195.2635,186.2943
89,6.2979,7320.79, , ,195.2635,196.2044
91,6.3499,14883.4, , ,195.2635,214.5326
93,6.4019,29237.8, , ,195.2635,245.6504
95,6.4539,42409.4, , ,195.2635,271.0740
97,6.5059,20774.2, , ,195.2635,227.6211
99,6.5579,6456.74, , ,195.2635,193.5444
101,6.6099,3531.58, , ,195.2635,185.6729
103,6.6619,2313.12, , ,195.2635,182.1286
105,6.7139,1394.33, , ,195.2635,179.3513
107,6.7659,788.3171, , ,195.2635,177.4140
109,6.8179,450.0320, , ,195.2635,176.2167
111,6.8699,657.3707, , ,195.2635,176.3731
113,6.9219,469.8552, , ,195.2635,175.4073
115,6.9739,390.1944, , ,195.2635,174.7451
117,7.0259,132.9495, , ,195.2635,173.5696
119,7.0779,161.5772, , ,195.2635,173.1182
121,7.1299,152.1354, , ,195.2635,172.4598
123,7.1819,-75.5554, , ,195.2635,171.1625
125,7.2339,212.7050, , ,195.2635,171.3674
127,7.2859,-143.6099, , ,195.2635,169.6832
129,7.3379,-114.2335, , ,195.2635,169.4962
131,7.3899,32.1590, , ,195.2635,169.6543
133,7.4419,-183.5378, , ,195.2635,168.7426
135,7.4939,138.9374, , ,195.2635,169.4218
137,7.5459,249.8541, , ,195.2635,169.3989
139,7.5979,741.3836, , ,195.2635,170.4199
141,7.6499,1485.7, , ,195.2635,172.1706
143,7.7019,2908, , ,195.2635,175.8421
145,7.7539,6076.37, , ,195.2635,184.2396
147,7.8059,13422.6, , ,195.2635,202.8446
149,7.8579,26944.6, , ,195.2635,233.5023
151,7.9099,36879.9, , ,195.2635,253.6021
153,7.9619,18083.1, , ,195.2635,213.0088
155,8.0139,5045.41, , ,195.2635,179.3448
157,8.0659,2456.67, , ,195.2635,171.4045
159,8.1179,1270.51, , ,195.2635,167.3230
161,8.1699,803.5376, , ,195.2635,165.3290
163,8.2219,359.5621, , ,195.2635,163.3811
165,8.2739,184.1897, , ,195.2635,162.0365
167,8.3259,35.0771, , ,195.2635,160.7623
169,8.3779,41.5468, , ,195.2635,159.9651
171,8.4299,-1.0141, , ,195.2635,159.0097
173,8.4819,64.1760, , ,195.2635,158.4893
175,8.5339,-5.4044, , ,195.2635,157.6407
177,8.5859,-27.3249, , ,195.2635,156.9395
179,8.6379,64.8341, , ,195.2635,156.5998
181,8.6899,-135.4040, , ,195.2635,155.3209
183,8.7419,44.7822, , ,195.2635,155.6488
185,8.7939,97.0785, , ,195.2635,155.5655
187,8.8459,454.3173, , ,195.2635,156.4597
189,8.8979,838.5127, , ,195.2635,157.4345
191,8.9499,1578.35, , ,195.2635,159.4505
193,9.0019,3775.75, , ,195.2635,165.8255
195,9.0539,8810.34, , ,195.2635,180.0247
197,9.1059,16414.3, , ,195.2635,199.7225
199,9.1579,17324.5, , ,195.2635,201.6817
201,9.2099,4832.22, , ,195.2635,167.5095
203,9.2619,1762.52, , ,195.2635,157.6894
205,9.3139,892.1789, , ,195.2635,154.5052
207,9.3659,208.3853, , ,195.2635,151.8693
209,9.4179,414.8216, , ,195.2635,152.0663
211,9.4699,268.6556, , ,195.2635,151.0253
213,9.5219,51.1677, , ,195.2635,149.7392
215,9.5739,65.9360, , ,195.2635,149.2222
217,9.6259,-61.8658, , ,195.2635,148.2233
219,9.6779,296.8231, , ,195.2635,148.9875
221,9.7299,214.9787, , ,195.2635,148.2696
223,9.7819,159.1955, , ,195.2635,147.6365
225,9.8339,-135.4633, , ,195.2635,146.1859
227,9.8859,111.0353, , ,195.2635,146.5733
229,9.9379,21.3305, , ,195.2635,145.8061
231,9.9899,95.9795, , ,195.2635,145.6003
233,10.0419,64.6862, , ,195.2635,145.0295
235,10.0939,332.8224, , ,195.2635,145.4891
237,10.1459,866.2117, , ,195.2635,146.8532
239,10.1979,1595.67, , ,195.2635,148.8647
241,10.2499,1388.74, , ,195.2635,147.7131
243,10.3019,345.9286, , ,195.2635,143.6723
245,10.3539,81.6588, , ,195.2635,142.1951
247,10.4059,12.6687, , ,195.2635,141.3117
249,10.4579,-28.8093, , ,195.2635,140.5207
251,10.5099,80.9894, , ,195.2635,140.2656
253,10.5619,-60.4744, , ,195.2635,139.1098
255,10.6139,3.1272, , ,195.2635,139.0892
257,10.6659,69.9430, , ,195.2635,139.0801
259,10.7179,-61.7299, , ,195.2635,138.3556
261,10.7699,30.3709, , ,195.2635,138.4378
263,10.8219,-8.0197, , ,195.2635,138.1075
265,10.8739,87.5541, , ,195.2635,138.3209
267,10.9259,133.1436, , ,195.2635,138.3535
269,10.9779,332.0883, , ,195.2635,138.9390
271,11.0299,958.7698, , ,195.2635,141.0466
273,11.0819,2626.18, , ,195.2635,146.5654
275,11.1339,6282.75, , ,195.2635,158.2966
277,11.1859,10710.5, , ,195.2635,171.4800
279,11.2379,7553.65, , ,195.2635,161.7665
281,11.2899,1898.71, , ,195.2635,142.9452
283,11.3419,741.6911, , ,195.2635,138.5502
285,11.3939,297.3228, , ,195.2635,136.6442
287,11.4459,281.0935, , ,195.2635,136.2910
289,11.4979,-111.5541, , ,195.2635,134.5453
291,11.5499,-174.5502, , ,195.2635,133.9233
293,11.6019,-100.8721, , ,195.2635,133.8100
295,11.6539,145.9803, , ,195.2635,134.3428
297,11.7059,-43.7005, , ,195.2635,133.2453
299,11.7579,98.1767, , ,195.2635,133.3598
301,11.8099,-124.9166, , ,195.2635,132.0723
303,11.8619,73.0075, , ,195.2635,132.3720
305,11.9139,126.9614, , ,195.2635,132.1273
307,11.9659,61.9955, , ,195.2635,131.4306
309,12.0179,-201.6259, , ,195.2635,130.2533
311,12.0699,-99.4891, , ,195.2635,130.4746
313,12.1219,-183.1888, , ,195.2635,129.9826
315,12.1739,-8.0153, , ,195.2635,130.4845
317,12.2259,105.3445, , ,195.2635,130.6582
319,12.2779,-9.0494, , ,195.2635,129.8677
321,12.3299,-72.9657, , ,195.2635,129.2677
323,12.3819,-42.4646, , ,195.2635,129.0314
325,12.4339,54.2672, , ,195.2635,129.0514
327,12.4859,-79.4679, , ,195.2635,128.3125
329,12.5379,53.3216, , ,195.2635,128.6096
331,12.5899,28.7014, , ,195.2635,128.2941
333,12.6419,82.9901, , ,195.2635,128.2857
335,12.6939,-31.2676, , ,195.2635,127.5359
337,12.7459,-71.3066, , ,195.2635,126.9909
339,12.7979,-159.2635, , ,195.2635,126.2540
341,12.8499,-97.5120, , ,195.2635,126.1077
343,12.9019,-25.0730, , ,195.2635,126.0037
345,12.9539,133.7328, , ,195.2635,126.3846
347,13.0059,-18.9524, , ,195.2635,125.5297
349,13.0579,135.0187, , ,195.2635,125.8929
351,13.1099,31.9913, , ,195.2635,125.2331
353,13.1619,-40.0712, , ,195.2635,124.7955
355,13.2139,-1.7792, , ,195.2635,124.9008
357,13.2659,6.2455, , ,195.2635,124.8849
359,13.3179,11.7183, , ,195.2635,124.8588
361,13.3699,4.7260, , ,195.2635,124.7827
363,13.4219,107.8607, , ,195.2635,125.2502
365,13.4739,198.8466, , ,195.2635,125.6677
367,13.5259,438.9054, , ,195.2635,126.6736
369,13.5779,925.8494, , ,195.2635,128.6348
371,13.6299,2752.41, , ,195.2635,135.5340
373,13.6819,6543.02, , ,195.2635,148.7894
375,13.7339,9037.89, , ,195.2635,156.8802
377,13.7859,4718.12, , ,195.2635,142.3723
379,13.8379,1371.4, , ,195.2635,130.0052
381,13.8899,436.8819, , ,195.2635,126.2738
383,13.9419,258.2797, , ,195.2635,125.4779
385,13.9939,114.6512, , ,195.2635,124.8171
387,14.0459,111.6705, , ,195.2635,124.7179
389,14.0979,-34.6779, , ,195.2635,123.9641
391,14.1499,-28.6066, , ,195.2635,123.7446
393,14.2019,-104.6114, , ,195.2635,123.1920
395,14.2539,-99.4276, , ,195.2635,122.9675
397,14.3059,49.6974, , ,195.2635,123.3276
399,14.3579,6.5958, , ,195.2635,122.9270
401,14.4099,-99.9411, , ,195.2635,122.2659
403,14.4619,68.9278, , ,195.2635,122.7284
405,14.5139,-23.9045, , ,195.2635,122.1224
407,14.5659,5.2294, , ,195.2635,122.0560
409,14.6179,48.9422, , ,195.2635,122.0913
411,14.6699,-62.8284, , ,195.2635,121.4882
413,14.7219,-27.0519, , ,195.2635,121.4910
415,14.7739,-33.0847, , ,195.2635,121.3215
417,14.8259,-33.0074, , ,195.2635,121.0945
419,14.8779,117.7384, , ,195.2635,121.4887
421,14.9299,28.3509, , ,195.2635,120.8926
423,14.9819,-85.9708, , ,195.2635,120.1898
425,15.0339,57.3917, , ,195.2635,120.6402
427,15.0859,-28.6037, , ,195.2635,120.2223
429,15.1379,-43.9007, , ,195.2635,120.0976
431,15.1899,1.1165, , ,195.2635,120.2239
433,15.2419,-60.2479, , ,195.2635,119.9073
435,15.2939,-36.6329, , ,195.2635,119.7146
437,15.3459,-98.5845, , ,195.2635,119.1632
439,15.3979,-51.7092, , ,195.2635,119.0670
441,15.4499,70.2392, , ,195.2635,119.2859
443,15.5019,-14.6085, , ,195.2635,118.8269
445,15.5539,-25.6675, , ,195.2635,118.8683
447,15.6059,39.2612, , ,195.2635,119.2287
449,15.6579,-45.8675, , ,195.2635,118.9590
451,15.7099,28.9148, , ,195.2635,119.3604
453,15.7619,48.3232, , ,195.2635,119.3998
455,15.8139,309.2713, , ,195.2635,120.4461
457,15.8659,567.6406, , ,195.2635,121.4728
459,15.9179,389.0798, , ,195.2635,120.6942
461,15.9699,43.1174, , ,195.2635,119.2104
463,16.0219,-89.1786, , ,195.2635,118.6121
465,16.0739,21.1394, , ,195.2635,119.0342
467,16.1259,98.5019, , ,195.2635,119.3168
469,16.1779,-26.6257, , ,195.2635,118.7492
471,16.2299,85.9800, , ,195.2635,119.1627
473,16.2819,-28.0785, , ,195.2635,118.6233
475,16.3339,-32.1894, , ,195.2635,118.5460
477,16.3859,8.4762, , ,195.2635,118.6574
479,16.4379,-8.9004, , ,195.2635,118.6348
481,16.4899,27.4456, , ,195.2635,118.9486
483,16.5419,53.2358, , ,195.2635,119.2174
485,16.5939,-56.2462, , ,195.2635,118.9182
487,16.6459,-72.0164, , ,195.2635,119.0125
489,16.6979,151.0807, , ,195.2635,119.8739
491,16.7499,-73.4118, , ,195.2635,118.8609
493,16.8019,-43.1859, , ,195.2635,118.9152
495,16.8539,120.4220, , ,195.2635,119.5286
497,16.9059,-116.8084, , ,195.2635,118.4908
499,16.9579,-2.2293, , ,195.2635,118.9640
501,17.0099,40.1955, , ,195.2635,119.1329
503,17.0619,-0.1176, , ,195.2635,118.9542
505,17.1139,131.0705, , ,195.2635,119.4951
507,17.1659,303.1158, , ,195.2635,120.2036
509,17.2179,-122.0278, , ,195.2635,118.4125
511,17.2699,208.9023, , ,195.2635,119.7925
513,17.3219,10.4758, , ,195.2635,118.9520
515,17.3739,-23.5839, , ,195.2635,118.8322
517,17.4259,20.7836, , ,195.2635,119.0747
519,17.4779,-133.9270, , ,195.2635,118.4796
521,17.5299,-73.9963, , ,195.2635,118.7883
523,17.5819,38.2796, , ,195.2635,119.3159
525,17.6339,-6.7236, , ,195.2635,119.0077
527,17.6859,71.0018, , ,195.2635,119.2146
529,17.7379,59.3586, , ,195.2635,119.0463
531,17.7899,31.9221, , ,195.2635,118.8114
533,17.8419,0.8188, , ,195.2635,118.6523
535,17.8939,-30.0595, , ,195.2635,118.5859
537,17.9459,-18.6921, , ,195.2635,118.6975
539,17.9979,9.2356, , ,195.2635,118.8786
541,18.0499,-3.4555, , ,195.2635,118.8888
543,18.1019,112.3382, , ,195.2635,119.5069
545,18.1539,54.9914, , ,195.2635,119.3989
547,18.2059,152.6091, , ,195.2635,119.9386
549,18.2579,244.5101, , ,195.2635,120.4522
551,18.3099,467.2774, , ,195.2635,121.5033
553,18.3619,533.6122, , ,195.2635,121.9055
555,18.4139,241.1249, , ,195.2635,120.8305
557,18.4659,-10.1035, , ,195.2635,119.9181
559,18.5179,37.5847, , ,195.2635,120.2480
561,18.5699,-41.2120, , ,195.2635,120.0625
563,18.6219,15.3368, , ,195.2635,120.4399
565,18.6739,-147.1557, , ,195.2635,119.9063
567,18.7259,-56.4997, , ,195.2635,120.4259
569,18.7779,178.8464, , ,195.2635,121.4316
571,18.8299,459.7313, , ,195.2635,122.5074
573,18.8819,1264.87, , ,195.2635,125.6772
575,18.9339,1443.49, , ,195.2635,126.3129
577,18.9859,690.4987, , ,195.2635,123.2213
579,19.0379,260.7582, , ,195.2635,121.3891
581,19.0899,105.7309, , ,195.2635,120.6725
583,19.1419,47.3151, , ,195.2635,120.3536
585,19.1939,139.8428, , ,195.2635,120.6610
587,19.2459,4.4917, , ,195.2635,120.1450
589,19.2979,50.2238, , ,195.2635,120.5040
591,19.3499,65.1365, , ,195.2635,120.7344
593,19.4019,36.7793, , ,195.2635,120.7854
595,19.4539,113.5697, , ,195.2635,121.2706
597,19.5059,35.1181, , ,195.2635,121.1148
599,19.5579,-54.6320, , ,195.2635,120.9120
601,19.6099,-103.0052, , ,195.2635,120.8801
603,19.6619,45.7483, , ,195.2635,121.6611
605,19.7139,-195.6493, , ,195.2635,120.8246
607,19.7659,119.0137, , ,195.2635,122.2689
609,19.8179,-58.0784, , ,195.2635,121.6924
611,19.8699,-143.9990, , ,195.2635,121.4889
613,19.9219,185.0496, , ,195.2635,122.9839
615,19.9739,498.7883, , ,195.2635,124.3995
617,20.0259,299.2938, , ,195.2635,123.7424
619,20.0779,171.0696, , ,195.2635,123.3710
621,20.1299,-3.7887, , ,195.2635,122.8087
623,20.1819,37.8924, , ,195.2635,123.1363
625,20.2339,78.6899, , ,195.2635,123.4694
627,20.2859,40.0222, , ,195.2635,123.4802
629,20.3379,51.2775, , ,195.2635,123.6929
631,20.3899,-35.0077, , ,195.2635,123.5111
633,20.4419,256.5862, , ,195.2635,124.6387
635,20.4939,978.1454, , ,195.2635,127.4543
637,20.5459,1280.03, , ,195.2635,128.5873
639,20.5979,493.0024, , ,195.2635,125.4428
641,20.6499,10.4639, , ,195.2635,123.4568
643,20.7019,-100.2398, , ,195.2635,122.9597
645,20.7539,-52.9897, , ,195.2635,123.1039
647,20.8059,-22.6036, , ,195.2635,123.1794
649,20.8579,7.3630, , ,195.2635,123.2532
651,20.9099,148.5648, , ,195.2635,123.7772
653,20.9619,816.9792, , ,195.2635,126.4018
655,21.0139,2194.08, , ,195.2635,131.6919
657,21.0659,2502.55, , ,195.2635,132.8135
659,21.1179,1246.86, , ,195.2635,127.9530
661,21.1699,368.0795, , ,195.2635,124.4243
663,21.2219,250.6130, , ,195.2635,123.9039
665,21.2739,-92.3857, , ,195.2635,122.4638
667,21.3259,105.6238, , ,195.2635,123.2218
669,21.3779,-38.2686, , ,195.2635,122.4979
671,21.4299,-47.7631, , ,195.2635,122.3202
673,21.4819,537.9821, , ,195.2635,124.5551
675,21.5339,772.3300, , ,195.2635,125.3568
677,21.5859,780.3208, , ,195.2635,125.2530
679,21.6379,237.2461, , ,195.2635,122.9278
681,21.6899,81.6072, , ,195.2635,122.1540
683,21.7419,160.4703, , ,195.2635,122.3375
685,21.7939,-28.9099, , ,195.2635,121.4211
687,21.8459,5.2508, , ,195.2635,121.6421
689,21.8979,-80.2074, , ,195.2635,121.3709
691,21.9499,-65.3704, , ,195.2635,121.5125
693,22.0019,-33.7074, , ,195.2635,121.7231
695,22.0539,-62.2380, , ,195.2635,121.6680
697,22.1059,-48.7049, , ,195.2635,121.7674
699,22.1579,-67.5032, , ,195.2635,121.7340
701,22.2099,-52.2121, , ,195.2635,121.8406
703,22.2619,85.1793, , ,195.2635,122.4466
705,22.3139,81.7943, , ,195.2635,122.4274
707,22.3659,85.8906, , ,195.2635,122.4387
709,22.4179,361.8046, , ,195.2635,123.5549
711,22.4699,691.0953, , ,195.2635,124.8750
713,22.5219,1221.87, , ,195.2635,126.9772
715,22.5739,727.7180, , ,195.2635,125.0109
717,22.6259,211.4728, , ,195.2635,122.9233
719,22.6779,112.2076, , ,195.2635,122.5134
721,22.7299,37.9180, , ,195.2635,122.2044
723,22.7819,-71.1750, , ,195.2635,121.6879
725,22.8339,-113.8353, , ,195.2635,121.4429
727,22.8859,36.3844, , ,195.2635,121.9906
729,22.9379,141.8497, , ,195.2635,122.3532
731,22.9899,206.9487, , ,195.2635,122.5500
733,23.0419,116.9854, , ,195.2635,122.1133
735,23.0939,233.8176, , ,195.2635,122.5218
737,23.1459,-69.5610, , ,195.2635,121.2078
739,23.1979,-16.7091, , ,195.2635,121.3561
741,23.2499,137.4802, , ,195.2635,121.7809
743,23.3019,103.9851, , ,195.2635,121.4340
745,23.3539,558.8427, , ,195.2635,123.0861
747,23.4059,1244.51, , ,195.2635,125.6382
749,23.4579,1696.3, , ,195.2635,127.2237
751,23.5099,1049.08, , ,195.2635,124.4498
753,23.5619,391.1689, , ,195.2635,121.5687
755,23.6139,111.8875, , ,195.2635,120.2031
757,23.6659,25.7636, , ,195.2635,119.6318
759,23.7179,-25.7764, , ,195.2635,119.2924
761,23.7699,201.9981, , ,195.2635,120.1203
763,23.8219,7.7879, , ,195.2635,119.1852
765,23.8739,99.0938, , ,195.2635,119.4440
767,23.9259,168.4585, , ,195.2635,119.6105
769,23.9779,166.8775, , ,195.2635,119.4803
771,24.0299,0.0276, , ,195.2635,118.6555
773,24.0819,-21.3676, , ,195.2635,118.4407
775,24.1339,17.1814, , ,195.2635,118.4786
777,24.1859,-12.0191, , ,195.2635,118.3093
779,24.2379,118.5790, , ,195.2635,118.8141
781,24.2899,113.0449, , ,195.2635,118.7450
783,24.3419,112.4090, , ,195.2635,118.6965
785,24.3939,-20.4137, , ,195.2635,118.0896
787,24.4459,79.0933, , ,195.2635,118.4642
789,24.4979,0.3016, , ,195.2635,118.0851
791,24.5499,22.0032, , ,195.2635,118.1308
793,24.6019,-28.6901, , ,195.2635,117.8699
795,24.6539,105.6842, , ,195.2635,118.4770
797,24.7059,218.1023, , ,195.2635,118.9888
799,24.7579,595.1200, , ,195.2635,120.6004
801,24.8099,561.3759, , ,195.2635,120.4982
803,24.8619,137.8923, , ,195.2635,118.7664
805,24.9139,-12.4010, , ,195.2635,118.1705
807,24.9659,-69.4513, , ,195.2635,117.9675
809,25.0179,-9.2571, , ,195.2635,118.2609
811,25.0699,74.4542, , ,195.2635,118.6527
813,25.1219,3.9417, , ,195.2635,118.2302
815,25.1739,153.9569, , ,195.2635,118.7386
817,25.2259,491.5967, , ,195.2635,120.0289
819,25.2779,226.0907, , ,195.2635,118.7934
821,25.3299,166.7700, , ,195.2635,118.4187
823,25.3819,-30.4593, , ,195.2635,117.4573
825,25.4339,-15.6140, , ,195.2635,117.3946
827,25.4859,57.4844, , ,195.2635,117.5799
829,25.5379,23.2386, , ,195.2635,117.3083
831,25.5899,93.0814, , ,195.2635,117.5943
833,25.6419,139.8057, , ,195.2635,117.7815
835,25.6939,59.0299, , ,195.2635,117.4267
837,25.7459,6.0571, , ,195.2635,117.1895
839,25.7979,16.3814, , ,195.2635,117.2838
841,25.8499,75.9593, , ,195.2635,117.6490
843,25.9019,-41.7809, , ,195.2635,117.2594
845,25.9539,-0.1568, , ,195.2635,117.5484
847,26.0059,-17.2387, , ,195.2635,117.5872
849,26.0579,-47.2091, , ,195.2635,117.3594
851,26.1099,-45.2820, , ,195.2635,117.2672
853,26.1619,87.5681, , ,195.2635,117.7323
855,26.2139,8.1035, , ,195.2635,117.2940
857,26.2659,-16.9407, , ,195.2635,117.1379
859,26.3179,95.9046, , ,195.2635,117.6205
861,26.3699,108.7875, , ,195.2635,117.6771
863,26.4219,129.1446, , ,195.2635,117.7654
865,26.4739,188.8203, , ,195.2635,118.0204
867,26.5259,199.0628, , ,195.2635,118.0657
869,26.5779,157.4337, , ,195.2635,117.8911
871,26.6299,53.9444, , ,195.2635,117.4533
873,26.6819,14.0306, , ,195.2635,117.2852
875,26.7339,-7.3761, , ,195.2635,117.2128
877,26.7859,248.1696, , ,195.2635,118.3336
879,26.8379,539.8848, , ,195.2635,119.5951
881,26.8899,674.9260, , ,195.2635,120.1935
883,26.9419,452.2679, , ,195.2635,119.2991
885,26.9939,212.7206, , ,195.2635,118.3265
887,27.0459,-58.0794, , ,195.2635,117.2127
889,27.0979,-115.4263, , ,195.2635,117.0039
891,27.1499,-99.5820, , ,195.2635,117.1076
893,27.2019,168.0682, , ,195.2635,118.1866
895,27.2539,495.3338, , ,195.2635,119.4125
897,27.3059,781.8924, , ,195.2635,120.4570
899,27.3579,229.5091, , ,195.2635,117.9894
901,27.4099,41.7503, , ,195.2635,117.0374
903,27.4619,-119.9222, , ,195.2635,116.1573
905,27.5139,-95.0940, , ,195.2635,116.0767
907,27.5659,-3.5462, , ,195.2635,116.2832
909,27.6179,198.6086, , ,195.2635,116.9632
911,27.6699,72.2801, , ,195.2635,116.2347
913,27.7219,36.4370, , ,195.2635,115.8926
915,27.7739,8.4919, , ,195.2635,115.5837
917,27.8259,-206.8505, , ,195.2635,114.4583
919,27.8779,9.0425, , ,195.2635,115.2087
921,27.9299,219.2704, , ,195.2635,115.9882
923,27.9819,200.6869, , ,195.2635,115.7786
925,28.0339,902.8069, , ,195.2635,118.6457
927,28.0859,897.8655, , ,195.2635,118.4984
929,28.1379,537.2078, , ,195.2635,116.8384
931,28.1899,163.2194, , ,195.2635,115.0966
933,28.2419,87.4657, , ,195.2635,114.6362
935,28.2939,-69.3480, , ,195.2635,113.8185
937,28.3459,-37.4074, , ,195.2635,113.8270
939,28.3979,107.3438, , ,195.2635,114.3679
941,28.4499,326.8068, , ,195.2635,115.2308
943,28.5019,134.1631, , ,195.2635,114.2986
945,28.5539,80.9802, , ,195.2635,113.9721
947,28.6059,-96.3302, , ,195.2635,112.9980
949,28.6579,-130.6556, , ,195.2635,112.5523
951,28.7099,-113.7528, , ,195.2635,112.3329
953,28.7619,-91.6204, , ,195.2635,112.1365
955,28.8139,50.9653, , ,195.2635,112.4765
957,28.8659,-49.5137, , ,195.2635,111.9615
959,28.9179,-59.6451, , ,195.2635,111.8487
961,28.9699,-58.8622, , ,195.2635,111.7846
963,29.0219,70.8763, , ,195.2635,112.2962
965,29.0739,-25.5709, , ,195.2635,111.8788
967,29.1259,17.9603, , ,195.2635,112.1664
969,29.1779,207.6457, , ,195.2635,113.1011
971,29.2299,69.2677, , ,195.2635,112.5805
973,29.2819,-41.5578, , ,195.2635,112.1804
975,29.3339,4.8973, , ,195.2635,112.3695
977,29.3859,-77.3868, , ,195.2635,111.9849
979,29.4379,-63.9951, , ,195.2635,112.0268
981,29.4899,277.7031, , ,195.2635,113.5240
983,29.5419,755.8933, , ,195.2635,115.5129
985,29.5939,885.0169, , ,195.2635,115.8923
987,29.6459,576.0351, , ,195.2635,114.3709
989,29.6979,231.9493, , ,195.2635,112.6733
991,29.7499,82.8895, , ,195.2635,111.8253
993,29.8019,12.5591, , ,195.2635,111.3249
995,29.8539,-72.5424, , ,195.2635,110.7555
997,29.9059,-50.6157, , ,195.2635,110.6679
999,29.9579,203.0259, , ,195.2635,111.6230
1001,30.0099,-119.8695, , ,195.2635,109.9127
1003,30.0619,-161.4880, , ,195.2635,109.4007
1005,30.1139,-130.1124, , ,195.2635,109.2210
1007,30.1659,35.0005, , ,195.2635,109.6525
1009,30.2179,-39.0190, , ,195.2635,108.9907
1011,30.2699,178.9816, , ,195.2635,109.8286
1013,30.3219,-30.5526, , ,195.2635,108.7111
1015,30.3739,-31.6928, , ,195.2635,108.5463
1017,30.4259,90.0783, , ,195.2635,108.9468
1019,30.4779,26.1914, , ,195.2635,108.4956
1021,30.5299,5.1724, , ,195.2635,108.2428
1023,30.5819,90.6546, , ,195.2635,108.4814
1025,30.6339,254.9081, , ,195.2635,109.0811
1027,30.6859,351.4801, , ,195.2635,109.3686
1029,30.7379,242.3115, , ,195.2635,108.7131
1031,30.7899,158.7823, , ,195.2635,108.1722
1033,30.8419,114.8226, , ,195.2635,107.8123
1035,30.8939,-13.2377, , ,195.2635,107.0591
1037,30.9459,-33.4068, , ,195.2635,106.8765
1039,30.9979,28.2936, , ,195.2635,107.1461
1041,31.0499,60.6372, , ,195.2635,107.2783
1043,31.1019,58.3086, , ,195.2635,107.2488
1045,31.1539,24.2925, , ,195.2635,107.0714
1047,31.2059,-43.2573, , ,195.2635,106.4929
1049,31.2579,-10.9667, , ,195.2635,106.3815
1051,31.3099,26.8156, , ,195.2635,106.2959
1053,31.3619,119.8319, , ,195.2635,106.4699
1055,31.4139,70.2525, , ,195.2635,105.9729
1057,31.4659,103.3861, , ,195.2635,105.8649
1059,31.5179,-21.1302, , ,195.2635,105.0089
1061,31.5699,91.7865, , ,195.2635,105.2796
1063,31.6219,9.1019, , ,195.2635,104.6188
1065,31.6739,-51.4836, , ,195.2635,104.1029
1067,31.7259,-33.3956, , ,195.2635,103.9634
1069,31.7779,-11.4610, , ,195.2635,103.8422
1071,31.8299,-21.8617, , ,195.2635,103.5649
1073,31.8819,-14.4916, , ,195.2635,103.5522
1075,31.9339,-38.6589, , ,195.2635,103.5664
1077,31.9859,-8.1128, , ,195.2635,103.8444
1079,32.0379,-30.1428, , ,195.2635,103.8689
1081,32.0899,31.4588, , ,195.2635,104.2951
1083,32.1419,-96.8415, , ,195.2635,103.4808
1085,32.1939,114.9791, , ,195.2635,104.3034
1087,32.2459,-12.5820, , ,195.2635,103.4928
1089,32.2979,52.8219, , ,195.2635,103.6111
1091,32.3499,21.6178, , ,195.2635,103.2659
1093,32.4019,19.6816, , ,195.2635,103.0648
1095,32.4539,49.3032, , ,195.2635,103.0166
1097,32.5059,-15.7297, , ,195.2635,102.5077
1099,32.5579,-33.7467, , ,195.2635,102.2265
1101,32.6099,39.6689, , ,195.2635,102.5535
1103,32.6619,205.6418, , ,195.2635,103.3284
1105,32.7139,423.5953, , ,195.2635,104.3468
1107,32.7659,319.9807, , ,195.2635,103.8181
1109,32.8179,182.1751, , ,195.2635,103.0275
1111,32.8699,135.1521, , ,195.2635,102.5800
1113,32.9219,36.1882, , ,195.2635,101.8758
1115,32.9739,110.2659, , ,195.2635,102.0185
1117,33.0259,30.3000, , ,195.2635,101.4041
1119,33.0779,158.2633, , ,195.2635,101.8124
1121,33.1299,106.3951, , ,195.2635,101.3356
1123,33.1819,-84.4226, , ,195.2635,100.1653
1125,33.2339,-119.6798, , ,195.2635,99.7638
1127,33.2859,42.2437, , ,195.2635,100.4159
1129,33.3379,8.1787, , ,195.2635,100.1574
1131,33.3899,-30.3789, , ,195.2635,99.8758
1133,33.4419,-10.2832, , ,195.2635,99.8874
1135,33.4939,-23.2164, , ,195.2635,99.7336
1137,33.5459,-0.7562, , ,195.2635,99.9306
1139,33.5979,-71.9401, , ,195.2635,99.6586
1141,33.6499,-7.2624, , ,195.2635,100.0670
1143,33.7019,-45.8682, , ,195.2635,99.9584
1145,33.7539,31.1519, , ,195.2635,100.3130
1147,33.8059,-10.8563, , ,195.2635,99.9590
1149,33.8579,-83.0854, , ,195.2635,99.4520
1151,33.9099,-31.6031, , ,195.2635,99.5655
1153,33.9619,26.7715, , ,195.2635,99.7134
1155,34.0139,-6.7873, , ,195.2635,99.2566
1157,34.0659,367.6896, , ,195.2635,100.8416
1159,34.1179,304.6342, , ,195.2635,100.2429
1161,34.1699,183.6852, , ,195.2635,99.3496
1163,34.2219,-52.8383, , ,195.2635,97.8596
1165,34.2739,20.1485, , ,195.2635,97.9395
1167,34.3259,-22.7810, , ,195.2635,97.4263
1169,34.3779,-146.5283, , ,195.2635,96.4925
1171,34.4299,58.6387, , ,195.2635,97.2555
1173,34.4819,-15.0524, , ,195.2635,96.6831
1175,34.5339,-84.5334, , ,195.2635,96.1291
1177,34.5859,-70.8492, , ,195.2635,96.0060
1179,34.6379,-26.5391, , ,195.2635,96.0423
1181,34.6899,20.7502, , ,195.2635,96.1785
1183,34.7419,-64.6569, , ,195.2635,95.7079
1185,34.7939,34.1116, , ,195.2635,96.1971
1187,34.8459,-92.4792, , ,195.2635,95.5113
1189,34.8979,-15.4455, , ,195.2635,95.8882
1191,34.9499,77.6704, , ,195.2635,96.4809
1193,35.0019,87.8239, , ,195.2635,96.6416
1195,35.0539,251.0824, , ,195.2635,97.5897
1197,35.1059,40.1972, , ,195.2635,96.6113
1199,35.1579,101.4914, , ,195.2635,96.9292
1201,35.2099,-109.3027, , ,195.2635,95.7289
1203,35.2619,-35.4183, , ,195.2635,96.0077
1205,35.3139,-8.8476, , ,195.2635,96.0396
1207,35.3659,-59.6973, , ,195.2635,95.6677
1209,35.4179,59.4856, , ,195.2635,96.1835
1211,35.4699,-180.6008, , ,195.2635,94.8206
1213,35.5219,-15.7375, , ,195.2635,95.5803
1215,35.5739,46.8319, , ,195.2635,95.8016
1217,35.6259,123.2762, , ,195.2635,96.0946
1219,35.6779,90.8954, , ,195.2635,95.8205
1221,35.7299,7.5939, , ,195.2635,95.2787
1223,35.7819,-23.7002, , ,195.2635,95.0080
1225,35.8339,62.2431, , ,195.2635,95.3533
1227,35.8859,-22.7534, , ,195.2635,94.4700
1229,35.9379,47.2108, , ,195.2635,94.4027
1231,35.9899,103.9704, , ,195.2635,94.2654
1233,36.0419,19.7025, , ,195.2635,93.3758
1235,36.0939,-75.1900, , ,195.2635,92.6710
1237,36.1459,-67.0785, , ,195.2635,92.7699
1239,36.1979,6.7811, , ,195.2635,93.2220
1241,36.2499,39.3124, , ,195.2635,93.4510
1243,36.3019,13.3288, , ,195.2635,93.3666
1245,36.3539,-64.1659, , ,195.2635,92.6850
1247,36.4059,75.5393, , ,195.2635,93.1712
1249,36.4579,-5.7776, , ,195.2635,92.4674
1251,36.5099,-26.5999, , ,195.2635,92.0873
1253,36.5619,3.0010, , ,195.2635,92.0139
1255,36.6139,57.7457, , ,195.2635,92.1109
1257,36.6659,3.1931, , ,195.2635,91.6132
1259,36.7179,107.3168, , ,195.2635,91.9794
1261,36.7699,-47.5312, , ,195.2635,90.9311
1263,36.8219,-26.9903, , ,195.2635,90.9536
1265,36.8739,86.0104, , ,195.2635,91.4829
1267,36.9259,-10.2506, , ,195.2635,90.8648
1269,36.9779,122.5727, , ,195.2635,91.5030
1271,37.0299,199.6113, , ,195.2635,91.8335
1273,37.0819,33.1062, , ,195.2635,90.8319
1275,37.1339,-25.7219, , ,195.2635,90.4166
1277,37.1859,-17.6107, , ,195.2635,90.3705
1279,37.2379,-63.9644, , ,195.2635,90.0224
1281,37.2899,124.8034, , ,195.2635,91.1173
1283,37.3419,1.3310, , ,195.2635,90.4900
1285,37.3939,35.2991, , ,195.2635,90.7302
1287,37.4459,52.3565, , ,195.2635,90.8767
1289,37.4979,169.1302, , ,195.2635,91.5691
1291,37.5499,94.5607, , ,195.2635,91.2135
1293,37.6019,95.8795, , ,195.2635,91.2730
1295,37.6539,12.0545, , ,195.2635,90.8653
1297,37.7059,-49.0437, , ,195.2635,90.5812
1299,37.7579,88.4092, , ,195.2635,91.0492
1301,37.8099,130.0901, , ,195.2635,90.9901
1303,37.8619,41.0028, , ,195.2635,90.2090
1305,37.9139,34.3775, , ,195.2635,89.8810
1307,37.9659,-38.5530, , ,195.2635,89.2381
1309,38.0179,-185.7341, , ,195.2635,88.2285
1311,38.0699,20.1238, , ,195.2635,89.2083
1313,38.1219,0.0363, , ,195.2635,88.9159
1315,38.1739,-6.4917, , ,195.2635,88.6990
1317,38.2259,-86.7676, , ,195.2635,88.3435
1319,38.2779,73.0091, , ,195.2635,89.3402
1321,38.3299,-60.6797, , ,195.2635,88.6866
1323,38.3819,85.2706, , ,195.2635,89.6025
1325,38.4339,-20.3921, , ,195.2635,88.9972
1327,38.4859,7.9068, , ,195.2635,89.0313
1329,38.5379,-59.1844, , ,195.2635,88.5283
1331,38.5899,61.7458, , ,195.2635,89.0841
1333,38.6419,111.0751, , ,195.2635,89.2361
1335,38.6939,246.1896, , ,195.2635,89.8664
1337,38.7459,119.7493, , ,195.2635,89.0354
1339,38.7979,93.8521, , ,195.2635,88.7648
1341,38.8499,-25.8789, , ,195.2635,87.9615
1343,38.9019,29.3667, , ,195.2635,88.2423
1345,38.9539,-53.8729, , ,195.2635,87.8301
1347,39.0059,-0.6035, , ,195.2635,88.1933
1349,39.0579,-6.6305, , ,195.2635,88.2196
1351,39.1099,33.8334, , ,195.2635,88.5089
1353,39.1619,-33.5115, , ,195.2635,88.1302
1355,39.2139,-9.0724, , ,195.2635,88.2713
1357,39.2659,54.9013, , ,195.2635,88.6354
1359,39.3179,-70.9790, , ,195.2635,87.9250
1361,39.3699,39.3583, , ,195.2635,88.5634
1363,39.4219,43.8612, , ,195.2635,88.6128
1365,39.4739,-29.6647, , ,195.2635,88.2211
1367,39.5259,96.3306, , ,195.2635,88.9562
1369,39.5779,46.5754, , ,195.2635,88.7000
1371,39.6299,-30.1545, , ,195.2635,88.2905
1373,39.6819,40.0461, , ,195.2635,88.7111
1375,39.7339,70.3296, , ,195.2635,88.9056
1377,39.7859,100.1513, , ,195.2635,89.0970
1379,39.8379,55.5688, , ,195.2635,88.8703
1381,39.8899,111.8866, , ,195.2635,89.2104
1383,39.9419,89.2940, , ,195.2635,89.1076
1384,39.9679,1.0623, , ,195.2635,88.6111