File: 2021/xrd/baseline_correction/mof230.ASC
  4.010        0
  4.036    -2547
  4.062    -4570
  4.088    -5478
  4.114    -5804
  4.140    -6737
  4.166    -6921
  4.192    -7104
  4.218    -6814
  4.244    -7040
  4.270    -6420
  4.296    -6126
  4.322    -5213
  4.348    -4317
  4.374    -3021
  4.400    -1146
  4.426     1098
  4.452     4319
  4.478     8533
  4.504    14252
  4.530    21464
  4.556    30564
  4.582    39093
  4.608    45064
  4.634    46287
  4.660    42632
  4.686    34718
  4.712    24710
  4.738    15964
  4.764     9549
  4.790     5320
  4.816     2745
  4.842     1168
  4.868      520
  4.894      367
  4.920      290
  4.946      158
  4.972     -227
  4.998     -407
  5.024     -540
  5.050     -414
  5.076     -272
  5.102     -104
  5.128     -155
  5.154     -136
  5.180       45
  5.206      -30
  5.232        5
  5.258      -42
  5.284     -120
  5.310      -96
  5.336       33
  5.362       71
  5.388       -6
  5.414        7
  5.440      -61
  5.466     -135
  5.492     -221
  5.518     -229
  5.544     -121
  5.570       78
  5.596      -80
  5.622     -143
  5.648       62
  5.674       16
  5.700       -2
  5.726     -154
  5.752      -71
  5.778       16
  5.804      -83
  5.830     -101
  5.856      -35
  5.882      -51
  5.908       70
  5.934       19
  5.960      130
  5.986     -145
  6.012     -152
  6.038      -27
  6.064       22
  6.090      -67
  6.116      -65
  6.142       85
  6.168      116
  6.194      195
  6.220      274
  6.246      669
  6.272      957
  6.298     1715
  6.324     2647
  6.350     3824
  6.376     5306
  6.402     7543
  6.428     9986
  6.454    12778
  6.480    14849
  6.506    15976
  6.532    15436
  6.558    13369
  6.584    10621
  6.610     7349
  6.636     4945
  6.662     3307
  6.688     2465
  6.714     2031
  6.740     1895
  6.766     1549
  6.792     1636
  6.818     1426
  6.844     1285
  6.870     1200
  6.896     1437
  6.922     1249
  6.948     1440
  6.974     1527
  7.000     1386
  7.026     1240
  7.052     1499
  7.078     1492
  7.104     1069
  7.130     1070
  7.156     1038
  7.182     1102
  7.208     1103
  7.234     1022
  7.260      974
  7.286      924
  7.312      682
  7.338      539
  7.364      747
  7.390      711
  7.416      683
  7.442      672
  7.468      623
  7.494      480
  7.520      484
  7.546      657
  7.572      650
  7.598      406
  7.624      418
  7.650      397
  7.676      486
  7.702      790
  7.728     1173
  7.754     1742
  7.780     2561
  7.806     3489
  7.832     4961
  7.858     6689
  7.884     8736
  7.910    10799
  7.936    11908
  7.962    12004
  7.988    11191
  8.014     9446
  8.040     6860
  8.066     4380
  8.092     2647
  8.118     1469
  8.144      969
  8.170      781
  8.196      556
  8.222      358
  8.248      254
  8.274      135
  8.300       40
  8.326      162
  8.352      179
  8.378      150
  8.404      -27
  8.430      -51
  8.456      -45
  8.482       68
  8.508      101
  8.534       77
  8.560       11
  8.586       50
  8.612      -59
  8.638      -84
  8.664       63
  8.690       15
  8.716       18
  8.742      -96
  8.768       13
  8.794      106
  8.820      112
  8.846       85
  8.872      -14
  8.898      255
  8.924      418
  8.950      301
  8.976      741
  9.002     1038
  9.028     1914
  9.054     2947
  9.080     4394
  9.106     5855
  9.132     6728
  9.158     8066
  9.184     8016
  9.210     7268
  9.236     5975
  9.262     4249
  9.288     2773
  9.314     1816
  9.340     1142
  9.366      524
  9.392      155
  9.418      279
  9.444      237
  9.470      -26
  9.496       33
  9.522       98
  9.548      130
  9.574     -135
  9.600       49
  9.626        0
  9.652        9
  9.678      -12
  9.704      -35
  9.730      -23
  9.756      116
  9.782       34
  9.808       55
  9.834       42
  9.860      -95
  9.886       68
  9.912      -71
  9.938       19
  9.964       36
  9.990      -88
 10.016      -24
 10.042       52
 10.068     -101
 10.094     -112
 10.120      167
 10.146      345
 10.172      626
 10.198      833
 10.224     1137
 10.250     1118
 10.276      922
 10.302      740
 10.328      612
 10.354      502
 10.380      366
 10.406      167
 10.432      -19
 10.458      -23
 10.484      -30
 10.510      -17
 10.536       40
 10.562       -5
 10.588      -60
 10.614        8
 10.640      105
 10.666      -15
 10.692     -129
 10.718      -68
 10.744      -10
 10.770       49
 10.796       34
 10.822       -6
 10.848     -151
 10.874     -236
 10.900      -69
 10.926      -86
 10.952     -170
 10.978      -74
 11.004      106
 11.030      260
 11.056      367
 11.082      573
 11.108     1286
 11.134     1994
 11.160     2621
 11.186     3190
 11.212     3421
 11.238     3356
 11.264     3094
 11.290     2443
 11.316     1805
 11.342     1131
 11.368      678
 11.394      271
 11.420      344
 11.446       25
 11.472       20
 11.498       76
 11.524       -7
 11.550      -80
 11.576      -89
 11.602      153
 11.628      119
 11.654       -7
 11.680      -30
 11.706       58
 11.732       -5
 11.758      -67
 11.784       38
 11.810      259
 11.836       -1
 11.862      104
 11.888     -128
 11.914     -126
 11.940      -44
 11.966      -61
 11.992       93
 12.018      227
 12.044       45
 12.070       72
 12.096      -61
 12.122       35
 12.148       12
 12.174      -43
 12.200       29
 12.226       85
 12.252     -149
 12.278      -81
 12.304       21
 12.330       21
 12.356       42
 12.382       24
 12.408        9
 12.434       36
 12.460      -60
 12.486      -24
 12.512       83
 12.538      -14
 12.564      -33
 12.590      -57
 12.616      -40
 12.642      -58
 12.668       62
 12.694      -23
 12.720       22
 12.746       76
 12.772       65
 12.798      -64
 12.824      -10
 12.850        1
 12.876      129
 12.902      118
 12.928       76
 12.954       83
 12.980       95
 13.006      117
 13.032       70
 13.058       58
 13.084      180
 13.110       84
 13.136      -35
 13.162      -65
 13.188     -125
 13.214     -146
 13.240      -59
 13.266       57
 13.292       21
 13.318      -73
 13.344      -44
 13.370       17
 13.396      -14
 13.422      117
 13.448      161
 13.474       49
 13.500      -59
 13.526       23
 13.552       90
 13.578      168
 13.604      435
 13.630     1040
 13.656     1722
 13.682     2306
 13.708     2858
 13.734     3357
 13.760     3520
 13.786     3082
 13.812     2361
 13.838     1796
 13.864     1056
 13.890      445
 13.916      334
 13.942      219
 13.968       85
 13.994      -42
 14.020      105
 14.046      -27
 14.072      -57
 14.098       69
 14.124       31
 14.150     -171
 14.176     -129
 14.202      -27
 14.228       18
 14.254       42
 14.280       65
 14.306       49
 14.332      -43
 14.358      113
 14.384      -14
 14.410     -108
 14.436       49
 14.462      -46
 14.488      -36
 14.514       71
 14.540       75
 14.566     -128
 14.592      -74
 14.618      128
 14.644      -37
 14.670        0
 14.696       44
 14.722      -72
 14.748       51
 14.774      -56
 14.800       33
 14.826      -10
 14.852      -20
 14.878     -204
 14.904      -26
 14.930       70
 14.956      -16
 14.982      -23
 15.008       13
 15.034       25
 15.060      -68
 15.086     -105
 15.112     -123
 15.138      -35
 15.164      -88
 15.190      185
 15.216      193
 15.242       52
 15.268      116
 15.294      -68
 15.320      -23
 15.346      -51
 15.372      -27
 15.398       -8
 15.424       68
 15.450       73
 15.476      -30
 15.502      -24
 15.528      -83
 15.554      -89
 15.580       11
 15.606       45
 15.632      101
 15.658       37
 15.684      -72
 15.710      -17
 15.736       27
 15.762      130
 15.788      267
 15.814      278
 15.840      238
 15.866      276
 15.892      383
 15.918      388
 15.944      237
 15.970      153
 15.996      125
 16.022       39
 16.048       70
 16.074       46
 16.100       83
 16.126       20
 16.152      -52
 16.178       35
 16.204       -2
 16.230       -7
 16.256      -50
 16.282       -9
 16.308      -51
 16.334      -60
 16.360      -96
 16.386        0
 16.412       36
 16.438        7
 16.464       28
 16.490      189
 16.516      145
 16.542      128
 16.568      166
 16.594      276
 16.620      232
 16.646       63
 16.672       40
 16.698       79
 16.724      -21
 16.750       21
 16.776       43
 16.802      -88
 16.828      -52
 16.854        0
 16.880       55
 16.906      -55
 16.932       66
 16.958      -62
 16.984       79
 17.010       31
 17.036      199
 17.062       -7
 17.088      220
 17.114      149
 17.140     -150
 17.166      -38
 17.192      103
 17.218       35
 17.244       97
 17.270       70
 17.296      -85
 17.322      -22
 17.348      113
 17.374      -51
 17.400      -14
 17.426       15
 17.452       33
 17.478      -38
 17.504      -46
 17.530        0
 17.556      139
 17.582      -41
 17.608      -79
 17.634      -33
 17.660      -14
 17.686       16
 17.712      -30
 17.738      -46
 17.764      -42
 17.790      -37
 17.816        1
 17.842       75
 17.868       11
 17.894     -107
 17.920       -7
 17.946      140
 17.972       46
 17.998      -34
 18.024      -30
 18.050       17
 18.076       42
 18.102       -3
 18.128        4
 18.154       35
 18.180       47
 18.206       -5
 18.232      -61
 18.258       33
 18.284      253
 18.310      272
 18.336      143
 18.362      259
 18.388      399
 18.414      246
 18.440       19
 18.466       19
 18.492       43
 18.518      -25
 18.544        3
 18.570       43
 18.596      -45
 18.622      -69
 18.648      110
 18.674       86
 18.700      -22
 18.726       77
 18.752      222
 18.778      175
 18.804      167
 18.830      364
 18.856      630
 18.882      789
 18.908      962
 18.934      952
 18.960      726
 18.986      543
 19.012      421
 19.038      124
 19.064       23
 19.090      -37
 19.116     -106
 19.142     -146
 19.168      -95
 19.194       -7
 19.220      -41
 19.246       88
 19.272       67
 19.298       -4
 19.324       48
 19.350      152
 19.376        3
 19.402      182
 19.428      317
 19.454      144
 19.480       15
 19.506      202
 19.532       59
 19.558      224
 19.584      274
 19.610       43
 19.636     -123
 19.662      150
 19.688       59
 19.714     -113
 19.740       21
 19.766     -104
 19.792       61
 19.818      290
 19.844      135
 19.870      222
 19.896      375
 19.922      100
 19.948      186
 19.974       93
 20.000       48
 20.026      264
 20.052      136
 20.078       60
 20.104       63
 20.130       90
 20.156      -19
 20.182      -38
 20.208      -23
 20.234        3
 20.260      135
 20.286       67
 20.312       13
 20.338     -123
 20.364      -24
 20.390       36
 20.416      270
 20.442      346
 20.468      338
 20.494      458
 20.520      572
 20.546      558
 20.572      481
 20.598      403
 20.624      401
 20.650      228
 20.676      111
 20.702       62
 20.728       25
 20.754        5
 20.780       17
 20.806      -78
 20.832       21
 20.858      -21
 20.884       61
 20.910      159
 20.936      363
 20.962      570
 20.988      682
 21.014      922
 21.040     1055
 21.066     1098
 21.092      947
 21.118      629
 21.144      388
 21.170      276
 21.196      274
 21.222      124
 21.248       -9
 21.274      -25
 21.300      -75
 21.326       -5
 21.352       83
 21.378      118
 21.404       66
 21.430      150
 21.456      138
 21.482      131
 21.508      282
 21.534      391
 21.560      462
 21.586      377
 21.612      336
 21.638      239
 21.664      206
 21.690      -26
 21.716      -18
 21.742       45
 21.768      -31
 21.794       33
 21.820      -17
 21.846       12
 21.872       33
 21.898       33
 21.924       10
 21.950       62
 21.976      164
 22.002      167
 22.028       85
 22.054        1
 22.080      109
 22.106       13
 22.132      -14
 22.158      133
 22.184       18
 22.210       50
 22.236      -60
 22.262       14
 22.288       -8
 22.314      112
 22.340      -94
 22.366       77
 22.392      159
 22.418      330
 22.444      399
 22.470      689
 22.496      544
 22.522      560
 22.548      502
 22.574      393
 22.600      225
 22.626      251
 22.652       84
 22.678       93
 22.704      153
 22.730      -62
 22.756      -46
 22.782      -57
 22.808     -110
 22.834      -30
 22.860        8
 22.886       19
 22.912       72
 22.938       30
 22.964      -68
 22.990       96
 23.016      116
 23.042      134
 23.068       -7
 23.094      -64
 23.120      -28
 23.146     -187
 23.172     -101
 23.198       49
 23.224      150
 23.250       66
 23.276       36
 23.302      208
 23.328      425
 23.354      441
 23.380      502
 23.406      714
 23.432      940
 23.458      884
 23.484      660
 23.510      590
 23.536      483
 23.562      310
 23.588      197
 23.614      153
 23.640       63
 23.666       29
 23.692       23
 23.718      -32
 23.744       20
 23.770      -60
 23.796     -139
 23.822      -81
 23.848       -4
 23.874       81
 23.900      -40
 23.926      -36
 23.952       -7
 23.978      -77
 24.004      -27
 24.030      -51
 24.056      -14
 24.082       34
 24.108      -20
 24.134       70
 24.160       78
 24.186       83
 24.212       28
 24.238      -40
 24.264      -40
 24.290       45
 24.316       82
 24.342       10
 24.368      -59
 24.394      -46
 24.420      136
 24.446      -79
 24.472       62
 24.498      146
 24.524      -12
 24.550      -27
 24.576       51
 24.602       23
 24.628      -12
 24.654      -42
 24.680       80
 24.706       86
 24.732      127
 24.758      254
 24.784      329
 24.810      326
 24.836       51
 24.862       -2
 24.888      103
 24.914       81
 24.940      -68
 24.966        7
 24.992     -190
 25.018      -80
 25.044     -122
 25.070       82
 25.096       39
 25.122       90
 25.148       75
 25.174      -58
 25.200      215
 25.226      136
 25.252      137
 25.278     -108
 25.304      -20
 25.330      108
 25.356      -95
 25.382       47
 25.408      -17
 25.434     -165
 25.460     -183
 25.486     -153
 25.512     -146
 25.538      102
 25.564       50
 25.590       96
 25.616      147
 25.642      113
 25.668       82
 25.694       81
 25.720       68
 25.746       52
 25.772       33
 25.798     -104
 25.824      -60
 25.850       27
 25.876       37
 25.902      -17
 25.928       72
 25.954       64
 25.980       94
 26.006        3
 26.032      -96
 26.058      -65
 26.084      -30
 26.110       10
 26.136      -12
 26.162      -98
 26.188      -75
 26.214       18
 26.240       -5
 26.266      -13
 26.292       97
 26.318       70
 26.344        8
 26.370       47
 26.396      169
 26.422      194
 26.448       47
 26.474       21
 26.500       -1
 26.526       -9
 26.552      -30
 26.578        2
 26.604      -20
 26.630      -65
 26.656      -51
 26.682       65
 26.708        5
 26.734      -74
 26.760       88
 26.786       27
 26.812       57
 26.838       68
 26.864       95
 26.890      178
 26.916      122
 26.942      268
 26.968       37
 26.994       37
 27.020       44
 27.046      -27
 27.072     -105
 27.098       73
 27.124      -45
 27.150       23
 27.176     -101
 27.202       24
 27.228      199
 27.254      136
 27.280      195
 27.306       36
 27.332      -68
 27.358      138
 27.384       55
 27.410       41
 27.436     -127
 27.462      -75
 27.488      -64
 27.514     -107
 27.540     -125
 27.566      -60
 27.592     -192
 27.618       20
 27.644       56
 27.670      -16
 27.696       31
 27.722      -78
 27.748      -56
 27.774       36
 27.800      -43
 27.826      146
 27.852       80
 27.878      115
 27.904      -59
 27.930      -17
 27.956      281
 27.982      267
 28.008      564
 28.034      565
 28.060      451
 28.086      303
 28.112      354
 28.138      315
 28.164      191
 28.190      178
 28.216       71
 28.242      114
 28.268      -26
 28.294      -91
 28.320     -108
 28.346       20
 28.372      108
 28.398       99
 28.424      140
 28.450      200
 28.476      160
 28.502       55
 28.528      -40
 28.554       42
 28.580        2
 28.606      -14
 28.632       16
 28.658       15
 28.684       46
 28.710       -9
 28.736      -29
 28.762      -63
 28.788       -9
 28.814       64
 28.840        8
 28.866      -79
 28.892      -74
 28.918      -82
 28.944     -103
 28.970      -53
 28.996       10
 29.022       48
 29.048        1
 29.074      -48
 29.100       -8
 29.126       58
 29.152       92
 29.178      192
 29.204      133
 29.230      -20
 29.256       28
 29.282      -31
 29.308      -25
 29.334      112
 29.360        1
 29.386      -98
 29.412      -11
 29.438       -5
 29.464       44
 29.490      158
 29.516      271
 29.542      336
 29.568      399
 29.594      299
 29.620      222
 29.646      159
 29.672      126
 29.698       72
 29.724       65
 29.750       93
 29.776       18
 29.802      112
 29.828     -140
 29.854      -89
 29.880       66
 29.906       24
 29.932      -24
 29.958      -92
 29.984      -20
 30.010       90
 30.036       43
 30.062       52
 30.088       80
 30.114      -24
 30.140     -176
 30.166      -62
 30.192      -58
 30.218       76
 30.244       11
 30.270        7
 30.296      -40
 30.322      -57
 30.348       -5
 30.374      -49
 30.400       65
 30.426       61
 30.452       74
 30.478     -161
 30.504        2
 30.530       39
 30.556      127
 30.582      183
 30.608       18
 30.634      139
 30.660      119
 30.686       89
 30.712      -99
 30.738       65
 30.764      203
 30.790      115
 30.816       81
 30.842       -5
 30.868       11
 30.894       19
 30.920       21
 30.946      -69
 30.972       56
 30.998       97
 31.024       16
 31.050       11
 31.076       69
 31.102       17
 31.128       82
 31.154       59
 31.180       -9
 31.206       39
 31.232       20
 31.258       52
 31.284      125
 31.310      158
 31.336      126
 31.362       53
 31.388       51
 31.414       18
 31.440      -45
 31.466      -26
 31.492      -22
 31.518     -118
 31.544      -30
 31.570       52
 31.596      -29
 31.622      -26
 31.648       17
 31.674       -5
 31.700      -70
 31.726      -34
 31.752      -54
 31.778       -8
 31.804       57
 31.830       67
 31.856       63
 31.882       52
 31.908       70
 31.934       38
 31.960       61
 31.986       76
 32.012      -42
 32.038       13
 32.064      -22
 32.090       29
 32.116      -25
 32.142       58
 32.168       84
 32.194       58
 32.220       23
 32.246      -82
 32.272       18
 32.298      -13
 32.324        6
 32.350      -24
 32.376       57
 32.402      -63
 32.428      -44
 32.454       62
 32.480      111
 32.506       81
 32.532        4
 32.558       -3
 32.584      128
 32.610      148
 32.636      179
 32.662      136
 32.688      160
 32.714      161
 32.740      203
 32.766      196
 32.792      111
 32.818       62
 32.844      110
 32.870      -51
 32.896       13
 32.922      169
 32.948      -64
 32.974       46
 33.000       53
 33.026      114
 33.052      232
 33.078      258
 33.104      139
 33.130       19
 33.156      -46
 33.182       74
 33.208      137
 33.234      105
 33.260     -107
 33.286      -58
 33.312      -25
 33.338       98
 33.364        7
 33.390       16
 33.416      142
 33.442      104
 33.468       51
 33.494      -69
 33.520      -45
 33.546       39
 33.572       56
 33.598        3
 33.624       28
 33.650      112
 33.676       70
 33.702       65
 33.728       86
 33.754       86
 33.780       72
 33.806       65
 33.832       13
 33.858      -42
 33.884       -9
 33.910       66
 33.936       38
 33.962       75
 33.988      140
 34.014      182
 34.040      153
 34.066       78
 34.092      117
 34.118       74
 34.144       21
 34.170       15
 34.196        5
 34.222       32
 34.248      -90
 34.274     -134
 34.300       -5
 34.326      -22
 34.352      -22
 34.378       22
 34.404      -12
 34.430       30
 34.456      -49
 34.482      -22
 34.508       14
 34.534      -53
 34.560      -77
 34.586      -96
 34.612      -60
 34.638        0
 34.664       -2
 34.690       37
 34.716      -12
 34.742     -176
 34.768     -111
 34.794      -46
 34.820      -45
 34.846      -58
 34.872      -80
 34.898       69
 34.924       32
 34.950        0
 34.976       22
 35.002       83
 35.028       38
 35.054       35
 35.080      -46
 35.106      -48
 35.132        6
 35.158       22
 35.184      102
 35.210       59
 35.236       74
 35.262       14
 35.288       27
 35.314       -8
 35.340       49
 35.366      -29
 35.392      -13
 35.418       21
 35.444       78
 35.470      102
 35.496      -33
 35.522       86
 35.548       32
 35.574      115
 35.600      109
 35.626       64
 35.652      149
 35.678      169
 35.704      158
 35.730       82
 35.756       34
 35.782      -24
 35.808      -19
 35.834      -61
 35.860       59
 35.886      133
 35.912        0
 35.938      132
 35.964       58
 35.990      -26
 36.016       17
 36.042      -54
 36.068       23
 36.094       68
 36.120      -56
 36.146        4
 36.172      -45
 36.198      -14
 36.224       40
 36.250        2
 36.276       25
 36.302       64
 36.328       72
 36.354       97
 36.380       61
 36.406       16
 36.432       68
 36.458       83
 36.484      -58
 36.510      -34
 36.536       -3
 36.562       68
 36.588       39
 36.614       10
 36.640       90
 36.666      136
 36.692       20
 36.718      -46
 36.744       15
 36.770        8
 36.796        8
 36.822       56
 36.848       73
 36.874      120
 36.900       97
 36.926       16
 36.952       56
 36.978       16
 37.004      -45
 37.030      -26
 37.056       52
 37.082       63
 37.108       15
 37.134       49
 37.160      128
 37.186       65
 37.212       36
 37.238       -4
 37.264      -49
 37.290       -1
 37.316       89
 37.342      107
 37.368       62
 37.394       52
 37.420       -3
 37.446       98
 37.472      149
 37.498      -18
 37.524       44
 37.550       45
 37.576      -79
 37.602        3
 37.628      119
 37.654       54
 37.680      -35
 37.706      103
 37.732      107
 37.758      -21
 37.784        4
 37.810      104
 37.836       95
 37.862      -29
 37.888       -2
 37.914      102
 37.940       30
 37.966      -56
 37.992      -81
 38.018      -66
 38.044      126
 38.070       60
 38.096       47
 38.122      -16
 38.148      -47
 38.174      -23
 38.200       48
 38.226       52
 38.252      103
 38.278       41
 38.304       -5
 38.330       66
 38.356       41
 38.382      139
 38.408       25
 38.434      -27
 38.460       19
 38.486      -91
 38.512      -31
 38.538       12
 38.564      155
 38.590      135
 38.616       31
 38.642       -7
 38.668       29
 38.694       84
 38.720        5
 38.746        6
 38.772       18
 38.798      -40
 38.824      -29
 38.850       31
 38.876       86
 38.902       40
 38.928       -1
 38.954      -61
 38.980       -4
 39.006        9
 39.032      -31
 39.058      -98
 39.084      -64
 39.110       29
 39.136       46
 39.162       80
 39.188       -2
 39.214       33
 39.240       61
 39.266      -23
 39.292      -52
 39.318      -14
 39.344       -3
 39.370       32
 39.396       43
 39.422       12
 39.448       26
 39.474       57
 39.500      145
 39.526      141
 39.552       63
 39.578       -8
 39.604      -58
 39.630       -5
 39.656       23
 39.682       53
 39.708       17
 39.734      -15
 39.760       47
 39.786      118
 39.812       96
 39.838       16
 39.864       60
 39.890      -39
 39.916      -57
 39.942       48
 39.968        2