File: 2021/xrd/baseline_correction/mof230.CSV
No.,Pos. [°2Th.],Iobs [cts],Icalc [cts],Iback [cts],CT [s],ESD
1,4.0099,0.0000, , ,195.2635,261.3343
3,4.0619,-4569.7, , ,195.2635,250.1491
5,4.1139,-5803.89, , ,195.2635,245.3346
7,4.1659,-6921.19, , ,195.2635,240.6666
9,4.2179,-6813.98, , ,195.2635,238.4875
11,4.2699,-6419.77, , ,195.2635,236.8619
13,4.3219,-5213.29, , ,195.2635,236.9125
15,4.3739,-3020.62, , ,195.2635,239.0348
17,4.4259,1098.11, , ,195.2635,245.0997
19,4.4779,8532.58, , ,195.2635,257.5379
21,4.5299,21463.5, , ,195.2635,279.4176
23,4.5819,39092.7, , ,195.2635,307.4424
25,4.6339,46286.5, , ,195.2635,317.0681
27,4.6859,34717.8, , ,195.2635,296.2784
29,4.7379,15963.6, , ,195.2635,260.4392
31,4.7899,5320.31, , ,195.2635,236.5830
33,4.8419,1168.04, , ,195.2635,224.9567
35,4.8939,367.0343, , ,195.2635,220.4331
37,4.9459,158.4821, , ,195.2635,217.1831
39,4.9979,-407.3309, , ,195.2635,213.6321
41,5.0499,-413.9277, , ,195.2635,211.3482
43,5.1019,-103.6789, , ,195.2635,209.7959
45,5.1539,-135.9113, , ,195.2635,207.4080
47,5.2059,-30.1309, , ,195.2635,205.7271
49,5.2579,-41.9123, , ,195.2635,204.1456
51,5.3099,-95.6331, , ,195.2635,202.4482
53,5.3619,70.5323, , ,195.2635,201.2833
55,5.4139,6.6259, , ,195.2635,199.5360
57,5.4659,-134.7407, , ,195.2635,198.0110
59,5.5179,-228.6303, , ,195.2635,196.5950
61,5.5699,78.3676, , ,195.2635,196.1930
63,5.6219,-143.3734, , ,195.2635,194.4353
65,5.6739,15.8366, , ,195.2635,193.8735
67,5.7259,-154.3042, , ,195.2635,192.6838
69,5.7779,16.1044, , ,195.2635,192.3738
71,5.8299,-100.8503, , ,195.2635,191.3137
73,5.8819,-51.0789, , ,195.2635,190.6854
75,5.9339,19.3715, , ,195.2635,190.3676
77,5.9859,-144.9076, , ,195.2635,189.4307
79,6.0379,-26.8178, , ,195.2635,189.2367
81,6.0899,-66.9708, , ,195.2635,188.6235
83,6.1419,84.6873, , ,195.2635,188.6768
85,6.1939,194.7873, , ,195.2635,188.7789
87,6.2459,669.0333, , ,195.2635,189.8426
89,6.2979,1714.72, , ,195.2635,192.3911
91,6.3499,3823.93, , ,195.2635,197.6159
93,6.4019,7542.64, , ,195.2635,206.5785
95,6.4539,12778.3, , ,195.2635,218.6649
97,6.5059,15976.1, , ,195.2635,225.6458
99,6.5579,13369.2, , ,195.2635,219.5748
101,6.6099,7349.43, , ,195.2635,205.1456
103,6.6619,3307.4, , ,195.2635,194.7345
105,6.7139,2031.33, , ,195.2635,191.1134
107,6.7659,1549.41, , ,195.2635,189.5290
109,6.8179,1426.36, , ,195.2635,188.8837
111,6.8699,1200.18, , ,195.2635,187.9620
113,6.9219,1249.32, , ,195.2635,187.7704
115,6.9739,1527.05, , ,195.2635,188.1869
117,7.0259,1239.87, , ,195.2635,187.0988
119,7.0779,1491.73, , ,195.2635,187.4143
121,7.1299,1069.56, , ,195.2635,185.8917
123,7.1819,1102.33, , ,195.2635,185.5862
125,7.2339,1021.62, , ,195.2635,184.9738
127,7.2859,923.6085, , ,195.2635,184.3124
129,7.3379,538.8840, , ,195.2635,182.7961
131,7.3899,711.0858, , ,195.2635,182.7969
133,7.4419,672.1817, , ,195.2635,182.2194
135,7.4939,480.0174, , ,195.2635,181.2176
137,7.5459,657.0851, , ,195.2635,181.1942
139,7.5979,406.0985, , ,195.2635,179.9475
141,7.6499,397.1079, , ,195.2635,179.3680
143,7.7019,789.8351, , ,195.2635,179.9066
145,7.7539,1742.31, , ,195.2635,181.9880
147,7.8059,3489.45, , ,195.2635,186.1111
149,7.8579,6689.13, , ,195.2635,193.9267
151,7.9099,10799.3, , ,195.2635,203.6867
153,7.9619,12004.4, , ,195.2635,206.0680
155,8.0139,9446.49, , ,195.2635,199.1547
157,8.0659,4380.39, , ,195.2635,185.3078
159,8.1179,1468.97, , ,195.2635,176.5504
161,8.1699,781.0858, , ,195.2635,173.8523
163,8.2219,357.6165, , ,195.2635,171.8826
165,8.2739,135.4772, , ,195.2635,170.4091
167,8.3259,161.5591, , ,195.2635,169.6559
169,8.3779,150.1964, , ,195.2635,168.7884
171,8.4299,-50.8006, , ,195.2635,167.3509
173,8.4819,67.5435, , ,195.2635,166.9171
175,8.5339,76.8319, , ,195.2635,166.2112
177,8.5859,50.2585, , ,195.2635,165.3939
179,8.6379,-84.3513, , ,195.2635,164.2440
181,8.6899,15.0962, , ,195.2635,163.8020
183,8.7419,-96.0711, , ,195.2635,162.8833
185,8.7939,106.0681, , ,195.2635,162.9238
187,8.8459,84.7649, , ,195.2635,162.2773
189,8.8979,254.8657, , ,195.2635,162.2193
191,8.9499,300.6891, , ,195.2635,161.7505
193,9.0019,1038.38, , ,195.2635,163.3844
195,9.0539,2946.84, , ,195.2635,168.5126
197,9.1059,5855, , ,195.2635,176.3468
199,9.1579,8065.8, , ,195.2635,181.9411
201,9.2099,7267.93, , ,195.2635,179.1598
203,9.2619,4248.91, , ,195.2635,169.9199
205,9.3139,1816.25, , ,195.2635,161.9681
207,9.3659,524.2576, , ,195.2635,157.2744
209,9.4179,279.0079, , ,195.2635,155.8037
211,9.4699,-26.3763, , ,195.2635,154.0956
213,9.5219,98.4160, , ,195.2635,153.7736
215,9.5739,-134.6531, , ,195.2635,152.2803
217,9.6259,-0.0048, , ,195.2635,151.9868
219,9.6779,-11.5564, , ,195.2635,151.4405
221,9.7299,-23.0380, , ,195.2635,150.8924
223,9.7819,33.5170, , ,195.2635,150.5684
225,9.8339,42.3641, , ,195.2635,150.0849
227,9.8859,68.0965, , ,195.2635,149.7171
229,9.9379,19.3683, , ,195.2635,149.1600
231,9.9899,-87.6322, , ,195.2635,148.4046
233,10.0419,52.3588, , ,195.2635,148.4794
235,10.0939,-112.2332, , ,195.2635,147.5255
237,10.1459,344.5693, , ,195.2635,148.5691
239,10.1979,832.8334, , ,195.2635,149.7106
241,10.2499,1117.55, , ,195.2635,150.1673
243,10.3019,740.3301, , ,195.2635,148.4090
245,10.3539,501.9610, , ,195.2635,147.1023
247,10.4059,166.5035, , ,195.2635,145.4505
249,10.4579,-23.4142, , ,195.2635,144.2849
251,10.5099,-16.7033, , ,195.2635,143.7953
253,10.5619,-4.8751, , ,195.2635,143.3218
255,10.6139,8.3605, , ,195.2635,142.9814
257,10.6659,-14.5056, , ,195.2635,142.5137
259,10.7179,-68.1284, , ,195.2635,141.9362
261,10.7699,48.9595, , ,195.2635,141.9588
263,10.8219,-5.9708, , ,195.2635,141.3621
265,10.8739,-236.2529, , ,195.2635,140.1264
267,10.9259,-85.7088, , ,195.2635,140.2441
269,10.9779,-74.2882, , ,195.2635,139.8652
271,11.0299,260.2609, , ,195.2635,140.6388
273,11.0819,572.5246, , ,195.2635,141.3293
275,11.1339,1993.52, , ,195.2635,145.8678
277,11.1859,3189.84, , ,195.2635,149.5198
279,11.2379,3355.87, , ,195.2635,149.6818
281,11.2899,2442.95, , ,195.2635,146.1713
283,11.3419,1131.31, , ,195.2635,141.1405
285,11.3939,270.7023, , ,195.2635,137.5727
287,11.4459,25.4177, , ,195.2635,136.1881
289,11.4979,75.5458, , ,195.2635,135.8806
291,11.5499,-79.8680, , ,195.2635,134.9309
293,11.6019,152.8120, , ,195.2635,135.4151
295,11.6539,-6.5666, , ,195.2635,134.4474
297,11.7059,57.9505, , ,195.2635,134.3087
299,11.7579,-66.7363, , ,195.2635,133.5454
301,11.8099,258.8280, , ,195.2635,134.5443
303,11.8619,104.4222, , ,195.2635,133.7534
305,11.9139,-125.6462, , ,195.2635,132.6730
307,11.9659,-60.6688, , ,195.2635,132.7002
309,12.0179,226.7829, , ,195.2635,133.5078
311,12.0699,72.2134, , ,195.2635,132.6549
313,12.1219,34.9614, , ,195.2635,132.2408
315,12.1739,-43.2639, , ,195.2635,131.6699
317,12.2259,84.5850, , ,195.2635,131.8852
319,12.2779,-80.8429, , ,195.2635,130.9904
321,12.3299,20.7634, , ,195.2635,131.1119
323,12.3819,23.5320, , ,195.2635,130.8561
325,12.4339,35.9797, , ,195.2635,130.6368
327,12.4859,-24.1781, , ,195.2635,130.0873
329,12.5379,-14.4708, , ,195.2635,129.8049
331,12.5899,-57.1669, , ,195.2635,129.3194
333,12.6419,-57.8889, , ,195.2635,128.9948
335,12.6939,-23.4966, , ,195.2635,128.8770
337,12.7459,76.2604, , ,195.2635,129.0837
339,12.7979,-64.4307, , ,195.2635,128.3568
341,12.8499,0.5615, , ,195.2635,128.4290
343,12.9019,118.4597, , ,195.2635,128.7069
345,12.9539,83.2458, , ,195.2635,128.3893
347,13.0059,116.5689, , ,195.2635,128.3381
349,13.0579,58.2012, , ,195.2635,127.9292
351,13.1099,84.3972, , ,195.2635,127.8500
353,13.1619,-65.0898, , ,195.2635,127.1666
355,13.2139,-146.0102, , ,195.2635,126.8358
357,13.2659,57.1034, , ,195.2635,127.6218
359,13.3179,-73.4010, , ,195.2635,127.0972
361,13.3699,17.3005, , ,195.2635,127.4414
363,13.4219,117.0077, , ,195.2635,127.7978
365,13.4739,48.9207, , ,195.2635,127.4970
367,13.5259,22.7425, , ,195.2635,127.3600
369,13.5779,168.3807, , ,195.2635,127.8964
371,13.6299,1039.87, , ,195.2635,131.1781
373,13.6819,2306.44, , ,195.2635,135.7954
375,13.7339,3356.89, , ,195.2635,139.4883
377,13.7859,3081.69, , ,195.2635,138.3760
379,13.8379,1796.1, , ,195.2635,133.5233
381,13.8899,445.2586, , ,195.2635,128.2333
383,13.9419,218.7327, , ,195.2635,127.2139
385,13.9939,-42.2311, , ,195.2635,126.0498
387,14.0459,-27.1051, , ,195.2635,125.9755
389,14.0979,69.2930, , ,195.2635,126.1686
391,14.1499,-170.5626, , ,195.2635,124.9684
393,14.2019,-27.3545, , ,195.2635,125.2947
395,14.2539,41.7755, , ,195.2635,125.3249
397,14.3059,49.2849, , ,195.2635,125.1091
399,14.3579,112.9501, , ,195.2635,125.1175
401,14.4099,-108.2566, , ,195.2635,123.9824
403,14.4619,-46.1679, , ,195.2635,123.9845
405,14.5139,70.8740, , ,195.2635,124.2081
407,14.5659,-127.8561, , ,195.2635,123.2086
409,14.6179,128.0116, , ,195.2635,124.0995
411,14.6699,-0.3629, , ,195.2635,123.4372
413,14.7219,-71.7687, , ,195.2635,123.0032
415,14.7739,-56.3095, , ,195.2635,122.9215
417,14.8259,-10.3424, , ,195.2635,123.0379
419,14.8779,-204.0087, , ,195.2635,122.1774
421,14.9299,70.3433, , ,195.2635,123.2248
423,14.9819,-22.9863, , ,195.2635,122.7749
425,15.0339,25.3572, , ,195.2635,122.8803
427,15.0859,-105.2886, , ,195.2635,122.2349
429,15.1379,-34.6409, , ,195.2635,122.4111
431,15.1899,185.3092, , ,195.2635,123.1944
433,15.2419,52.0166, , ,195.2635,122.5399
435,15.2939,-67.9515, , ,195.2635,121.9364
437,15.3459,-51.1265, , ,195.2635,121.8924
439,15.3979,-8.1587, , ,195.2635,121.9556
441,15.4499,73.1374, , ,195.2635,122.1758
443,15.5019,-23.8964, , ,195.2635,121.6849
445,15.5539,-88.7044, , ,195.2635,121.3451
447,15.6059,45.2076, , ,195.2635,121.8227
449,15.6579,37.0476, , ,195.2635,121.7162
451,15.7099,-16.9366, , ,195.2635,121.4210
453,15.7619,130.2827, , ,195.2635,121.9620
455,15.8139,277.7522, , ,195.2635,122.5016
457,15.8659,275.6215, , ,195.2635,122.4294
459,15.9179,388.0716, , ,195.2635,122.8245
461,15.9699,153.0531, , ,195.2635,121.8001
463,16.0219,38.6437, , ,195.2635,121.2655
465,16.0739,46.3589, , ,195.2635,121.2331
467,16.1259,20.2497, , ,195.2635,121.0612
469,16.1779,34.7597, , ,195.2635,121.0568
471,16.2299,-6.7260, , ,195.2635,120.9038
473,16.2819,-8.8245, , ,195.2635,120.9135
475,16.3339,-60.1098, , ,195.2635,120.7196
477,16.3859,0.0602, , ,195.2635,120.9869
479,16.4379,7.1100, , ,195.2635,120.9844
481,16.4899,189.0551, , ,195.2635,121.6527
483,16.5419,128.0800, , ,195.2635,121.3204
485,16.5939,276.0965, , ,195.2635,121.8478
487,16.6459,63.1973, , ,195.2635,120.8892
489,16.6979,78.7512, , ,195.2635,120.8717
491,16.7499,21.4068, , ,195.2635,120.5523
493,16.8019,-88.2358, , ,195.2635,120.0143
495,16.8539,-0.1045, , ,195.2635,120.2987
497,16.9059,-55.0590, , ,195.2635,120.0497
499,16.9579,-62.2885, , ,195.2635,120.0613
501,17.0099,30.7465, , ,195.2635,120.4896
503,17.0619,-6.9864, , ,195.2635,120.3745
505,17.1139,148.6131, , ,195.2635,121.0604
507,17.1659,-37.9309, , ,195.2635,120.3290
509,17.2179,34.5101, , ,195.2635,120.6711
511,17.2699,70.3630, , ,195.2635,120.8609
513,17.3219,-21.7103, , ,195.2635,120.5209
515,17.3739,-50.9541, , ,195.2635,120.3806
517,17.4259,14.9872, , ,195.2635,120.5750
519,17.4779,-38.4827, , ,195.2635,120.2736
521,17.5299,-0.3227, , ,195.2635,120.3528
523,17.5819,-40.7202, , ,195.2635,120.1053
525,17.6339,-33.4428, , ,195.2635,120.1633
527,17.6859,16.2773, , ,195.2635,120.3977
529,17.7379,-46.1874, , ,195.2635,120.1658
531,17.7899,-36.8345, , ,195.2635,120.2324
533,17.8419,74.8940, , ,195.2635,120.6998
535,17.8939,-107.4590, , ,195.2635,119.9217
537,17.9459,139.6877, , ,195.2635,120.9275
539,17.9979,-34.2763, , ,195.2635,120.1857
541,18.0499,17.4969, , ,195.2635,120.3806
543,18.1019,-3.3549, , ,195.2635,120.2543
545,18.1539,34.8346, , ,195.2635,120.3733
547,18.2059,-5.2745, , ,195.2635,120.1668
549,18.2579,32.6796, , ,195.2635,120.2849
551,18.3099,272.0450, , ,195.2635,121.2364
553,18.3619,258.7066, , ,195.2635,121.1420
555,18.4139,245.6078, , ,195.2635,121.0484
557,18.4659,18.8670, , ,195.2635,120.0684
559,18.5179,-25.3882, , ,195.2635,119.8441
561,18.5699,42.9181, , ,195.2635,120.2388
563,18.6219,-68.8781, , ,195.2635,119.8833
565,18.6739,86.1238, , ,195.2635,120.6377
567,18.7259,76.5328, , ,195.2635,120.7075
569,18.7779,174.8323, , ,195.2635,121.1675
571,18.8299,364.3165, , ,195.2635,121.9446
573,18.8819,789.4214, , ,195.2635,123.6731
575,18.9339,952.2185, , ,195.2635,124.3273
577,18.9859,543.2633, , ,195.2635,122.6693
579,19.0379,124.0848, , ,195.2635,120.9464
581,19.0899,-37.2893, , ,195.2635,120.2751
583,19.1419,-145.5762, , ,195.2635,119.8218
585,19.1939,-6.9264, , ,195.2635,120.3966
587,19.2459,87.9572, , ,195.2635,120.7691
589,19.2979,-3.8105, , ,195.2635,120.3489
591,19.3499,151.9485, , ,195.2635,120.9548
593,19.4019,182.2823, , ,195.2635,121.0406
595,19.4539,143.5097, , ,195.2635,120.8408
597,19.5059,202.3138, , ,195.2635,121.0444
599,19.5579,224.4298, , ,195.2635,121.0963
601,19.6099,43.1160, , ,195.2635,120.3056
603,19.6619,150.1700, , ,195.2635,120.7102
605,19.7139,-113.0579, , ,195.2635,119.6711
607,19.7659,-103.7563, , ,195.2635,119.8620
609,19.8179,289.5702, , ,195.2635,121.6416
611,19.8699,221.5960, , ,195.2635,121.5119
613,19.9219,99.6346, , ,195.2635,121.1595
615,19.9739,92.8881, , ,195.2635,121.2820
617,20.0259,263.7862, , ,195.2635,122.1338
619,20.0779,60.3816, , ,195.2635,121.4484
621,20.1299,90.2437, , ,195.2635,121.7211
623,20.1819,-38.1112, , ,195.2635,121.2951
625,20.2339,3.4722, , ,195.2635,121.5208
627,20.2859,66.5250, , ,195.2635,121.8342
629,20.3379,-123.1688, , ,195.2635,121.1078
631,20.3899,36.0273, , ,195.2635,121.8176
633,20.4419,346.3960, , ,195.2635,123.0671
635,20.4939,458.1210, , ,195.2635,123.5024
637,20.5459,557.8369, , ,195.2635,123.8877
639,20.5979,402.5267, , ,195.2635,123.2415
641,20.6499,228.1010, , ,195.2635,122.5139
643,20.7019,61.7857, , ,195.2635,121.8152
645,20.7539,5.1462, , ,195.2635,121.5645
647,20.8059,-77.9641, , ,195.2635,121.2041
649,20.8579,-21.0589, , ,195.2635,121.4205
651,20.9099,159.1131, , ,195.2635,122.0191
653,20.9619,570.2340, , ,195.2635,123.5530
655,21.0139,921.7884, , ,195.2635,124.8297
657,21.0659,1097.9, , ,195.2635,125.3959
659,21.1179,628.6179, , ,195.2635,123.3710
661,21.1699,275.6698, , ,195.2635,121.7908
663,21.2219,124.0322, , ,195.2635,121.0245
665,21.2739,-24.8452, , ,195.2635,120.2647
667,21.3259,-4.5369, , ,195.2635,120.2059
669,21.3779,117.9680, , ,195.2635,120.6361
671,21.4299,150.2079, , ,195.2635,120.6915
673,21.4819,130.8570, , ,195.2635,120.5329
675,21.5339,390.7604, , ,195.2635,121.5286
677,21.5859,376.8614, , ,195.2635,121.3936
679,21.6379,239.0804, , ,195.2635,120.7466
681,21.6899,-25.6875, , ,195.2635,119.5663
683,21.7419,45.3827, , ,195.2635,119.7843
685,21.7939,33.1191, , ,195.2635,119.6542
687,21.8459,12.3903, , ,195.2635,119.4866
689,21.8979,33.2729, , ,195.2635,119.4931
691,21.9499,62.4111, , ,195.2635,119.5341
693,22.0019,167.4799, , ,195.2635,119.8922
695,22.0539,1.4481, , ,195.2635,119.1167
697,22.1059,13.2536, , ,195.2635,119.0851
699,22.1579,132.9196, , ,195.2635,119.5056
701,22.2099,49.6384, , ,195.2635,119.0755
703,22.2619,14.2209, , ,195.2635,118.8454
705,22.3139,112.3531, , ,195.2635,119.2920
707,22.3659,76.9234, , ,195.2635,119.1779
709,22.4179,330.3189, , ,195.2635,120.2705
711,22.4699,689.0263, , ,195.2635,121.7864
713,22.5219,559.6239, , ,195.2635,121.2878
715,22.5739,392.8503, , ,195.2635,120.6324
717,22.6259,251.4210, , ,195.2635,120.0790
719,22.6779,93.4419, , ,195.2635,119.4538
721,22.7299,-61.6387, , ,195.2635,118.8375
723,22.7819,-57.1386, , ,195.2635,118.7957
725,22.8339,-30.1629, , ,195.2635,118.8484
727,22.8859,18.9811, , ,195.2635,118.9943
729,22.9379,30.4750, , ,195.2635,118.9819
731,22.9899,96.3154, , ,195.2635,119.1977
733,23.0419,133.8604, , ,195.2635,119.2946
735,23.0939,-63.5456, , ,195.2635,118.4033
737,23.1459,-186.6696, , ,195.2635,117.8209
739,23.1979,48.5566, , ,195.2635,118.7542
741,23.2499,65.7105, , ,195.2635,118.7871
743,23.3019,207.7874, , ,195.2635,119.3445
745,23.3539,441.0341, , ,195.2635,120.2790
747,23.4059,714.2635, , ,195.2635,121.3710
749,23.4579,884.3952, , ,195.2635,121.9989
751,23.5099,589.8025, , ,195.2635,120.6806
753,23.5619,310.3367, , ,195.2635,119.4111
755,23.6139,152.8657, , ,195.2635,118.6432
757,23.6659,29.4103, , ,195.2635,118.0144
759,23.7179,-31.6640, , ,195.2635,117.6478
761,23.7699,-59.8565, , ,195.2635,117.4201
763,23.8219,-81.1828, , ,195.2635,117.2212
765,23.8739,81.4856, , ,195.2635,117.8056
767,23.9259,-36.2112, , ,195.2635,117.1988
769,23.9779,-76.5877, , ,195.2635,116.9220
771,24.0299,-50.9102, , ,195.2635,116.9272
773,24.0819,33.7874, , ,195.2635,117.1846
775,24.1339,69.8083, , ,195.2635,117.2340
777,24.1859,83.1550, , ,195.2635,117.1866
779,24.2379,-39.7245, , ,195.2635,116.5564
781,24.2899,45.4369, , ,195.2635,116.8165
783,24.3419,9.6387, , ,195.2635,116.5584
785,24.3939,-46.1369, , ,195.2635,116.2807
787,24.4459,-78.6880, , ,195.2635,116.1693
789,24.4979,146.3733, , ,195.2635,117.1625
791,24.5499,-26.6413, , ,195.2635,116.4504
793,24.6019,22.6607, , ,195.2635,116.6904
795,24.6539,-42.2544, , ,195.2635,116.4225
797,24.7059,86.3632, , ,195.2635,116.9840
799,24.7579,254.0250, , ,195.2635,117.7088
801,24.8099,326.1981, , ,195.2635,118.0253
803,24.8619,-2.3638, , ,195.2635,116.6356
805,24.9139,81.2736, , ,195.2635,117.0040
807,24.9659,7.4816, , ,195.2635,116.6987
809,25.0179,-79.6958, , ,195.2635,116.3351
811,25.0699,82.1147, , ,195.2635,117.0389
813,25.1219,89.8653, , ,195.2635,117.0303
815,25.1739,-58.0470, , ,195.2635,116.3546
817,25.2259,136.2079, , ,195.2635,117.1447
819,25.2779,-108.4355, , ,195.2635,116.0537
821,25.3299,107.7688, , ,195.2635,116.8779
823,25.3819,47.3542, , ,195.2635,116.4532
825,25.4339,-164.5861, , ,195.2635,115.3722
827,25.4859,-153.1811, , ,195.2635,115.2540
829,25.5379,101.5700, , ,195.2635,116.1877
831,25.5899,95.9540, , ,195.2635,116.0582
833,25.6419,112.5803, , ,195.2635,116.0245
835,25.6939,80.7150, , ,195.2635,115.7816
837,25.7459,52.1322, , ,195.2635,115.5524
839,25.7979,-103.6789, , ,195.2635,114.8897
841,25.8499,26.9547, , ,195.2635,115.5896
843,25.9019,-17.4652, , ,195.2635,115.5301
845,25.9539,63.6897, , ,195.2635,116.0130
847,26.0059,2.5686, , ,195.2635,115.8817
849,26.0579,-64.7558, , ,195.2635,115.6543
851,26.1099,9.6076, , ,195.2635,116.0385
853,26.1619,-98.2871, , ,195.2635,115.6361
855,26.2139,17.7720, , ,195.2635,116.2000
857,26.2659,-12.6212, , ,195.2635,116.1246
859,26.3179,69.6986, , ,195.2635,116.5262
861,26.3699,46.5603, , ,195.2635,116.4746
863,26.4219,193.8153, , ,195.2635,117.1525
865,26.4739,21.4297, , ,195.2635,116.4621
867,26.5259,-8.8706, , ,195.2635,116.3797
869,26.5779,2.4079, , ,195.2635,116.4759
871,26.6299,-65.4088, , ,195.2635,116.2322
873,26.6819,65.1714, , ,195.2635,116.8401
875,26.7339,-74.3034, , ,195.2635,116.2723
877,26.7859,26.5746, , ,195.2635,116.7186
879,26.8379,67.8622, , ,195.2635,116.9087
881,26.8899,178.0320, , ,195.2635,117.3922
883,26.9419,268.2483, , ,195.2635,117.7890
885,26.9939,36.9823, , ,195.2635,116.8165
887,27.0459,-27.1087, , ,195.2635,116.5552
889,27.0979,72.5667, , ,195.2635,116.9953
891,27.1499,23.4113, , ,195.2635,116.7984
893,27.2019,23.8518, , ,195.2635,116.7470
895,27.2539,135.7964, , ,195.2635,117.1059
897,27.3059,36.4918, , ,195.2635,116.5611
899,27.3579,137.7525, , ,195.2635,116.8749
901,27.4099,40.8344, , ,195.2635,116.3393
903,27.4619,-75.3904, , ,195.2635,115.7600
905,27.5139,-107.4565, , ,195.2635,115.5426
907,27.5659,-60.0578, , ,195.2635,115.6688
909,27.6179,19.5243, , ,195.2635,115.9338
911,27.6699,-16.0478, , ,195.2635,115.6847
913,27.7219,-78.3580, , ,195.2635,115.3024
915,27.7739,36.2708, , ,195.2635,115.6861
917,27.8259,145.9873, , ,195.2635,116.0473
919,27.8779,114.8769, , ,195.2635,115.8010
921,27.9299,-17.1936, , ,195.2635,115.1165
923,27.9819,267.1225, , ,195.2635,116.2331
925,28.0339,565.1667, , ,195.2635,117.3975
927,28.0859,302.8228, , ,195.2635,116.1629
929,28.1379,314.6747, , ,195.2635,116.0604
931,28.1899,177.9983, , ,195.2635,115.2736
933,28.2419,113.9354, , ,195.2635,114.7981
935,28.2939,-91.4699, , ,195.2635,113.7008
937,28.3459,19.7767, , ,195.2635,113.9902
939,28.3979,99.3831, , ,195.2635,114.2806
941,28.4499,199.5494, , ,195.2635,114.6599
943,28.5019,55.3182, , ,195.2635,113.9707
945,28.5539,41.9163, , ,195.2635,113.8533
947,28.6059,-13.9736, , ,195.2635,113.6008
949,28.6579,15.1608, , ,195.2635,113.7739
951,28.7099,-9.3724, , ,195.2635,113.7110
953,28.7619,-62.7783, , ,195.2635,113.5209
955,28.8139,64.2278, , ,195.2635,114.1237
957,28.8659,-78.6156, , ,195.2635,113.4159
959,28.9179,-82.1235, , ,195.2635,113.3200
961,28.9699,-53.2715, , ,195.2635,113.3669
963,29.0219,48.1205, , ,195.2635,113.7332
965,29.0739,-48.1793, , ,195.2635,113.2619
967,29.1259,57.5688, , ,195.2635,113.7141
969,29.1779,192.0894, , ,195.2635,114.2905
971,29.2299,-19.5676, , ,195.2635,113.3470
973,29.2819,-31.3932, , ,195.2635,113.2811
975,29.3339,111.5514, , ,195.2635,113.8254
977,29.3859,-98.4558, , ,195.2635,112.8135
979,29.4379,-5.4417, , ,195.2635,113.1396
981,29.4899,157.7927, , ,195.2635,113.7737
983,29.5419,336.3447, , ,195.2635,114.4099
985,29.5939,298.6132, , ,195.2635,114.0370
987,29.6459,158.6201, , ,195.2635,113.2122
989,29.6979,72.4887, , ,195.2635,112.6207
991,29.7499,93.2422, , ,195.2635,112.5022
993,29.8019,112.2278, , ,195.2635,112.3756
995,29.8539,-88.5196, , ,195.2635,111.2659
997,29.9059,23.8866, , ,195.2635,111.5574
999,29.9579,-92.3532, , ,195.2635,110.8213
1001,30.0099,90.0848, , ,195.2635,111.4813
1003,30.0619,51.7219, , ,195.2635,111.2013
1005,30.1139,-24.3044, , ,195.2635,110.7506
1007,30.1659,-62.0111, , ,195.2635,110.4717
1009,30.2179,75.8301, , ,195.2635,110.9857
1011,30.2699,7.1476, , ,195.2635,110.5593
1013,30.3219,-57.2269, , ,195.2635,110.1509
1015,30.3739,-48.8616, , ,195.2635,110.0718
1017,30.4259,61.2205, , ,195.2635,110.4541
1019,30.4779,-160.8156, , ,195.2635,109.2895
1021,30.5299,38.9399, , ,195.2635,110.0088
1023,30.5819,183.0603, , ,195.2635,110.4720
1025,30.6339,139.2680, , ,195.2635,110.0830
1027,30.6859,88.8531, , ,195.2635,109.6625
1029,30.7379,64.9166, , ,195.2635,109.3614
1031,30.7899,115.1936, , ,195.2635,109.3992
1033,30.8419,-4.9575, , ,195.2635,108.6556
1035,30.8939,19.2163, , ,195.2635,108.5736
1037,30.9459,-69.3735, , ,195.2635,108.0191
1039,30.9979,97.4665, , ,195.2635,108.6921
1041,31.0499,11.1214, , ,195.2635,108.1971
1043,31.1019,17.1403, , ,195.2635,108.1279
1045,31.1539,59.2304, , ,195.2635,108.2254
1047,31.2059,39.1920, , ,195.2635,108.0356
1049,31.2579,51.8498, , ,195.2635,107.9970
1051,31.3099,157.8434, , ,195.2635,108.3898
1053,31.3619,52.9273, , ,195.2635,107.8074
1055,31.4139,18.3213, , ,195.2635,107.5076
1057,31.4659,-26.1896, , ,195.2635,107.1190
1059,31.5179,-118.1957, , ,195.2635,106.5063
1061,31.5699,52.3186, , ,195.2635,107.1224
1063,31.6219,-25.6215, , ,195.2635,106.5757
1065,31.6739,-5.3949, , ,195.2635,106.5997
1067,31.7259,-33.8759, , ,195.2635,106.3950
1069,31.7779,-7.5896, , ,195.2635,106.4475
1071,31.8299,67.0108, , ,195.2635,106.7266
1073,31.8819,51.9360, , ,195.2635,106.5851
1075,31.9339,38.3234, , ,195.2635,106.4503
1077,31.9859,75.8817, , ,195.2635,106.5556
1079,32.0379,12.8919, , ,195.2635,106.1885
1081,32.0899,28.8308, , ,195.2635,106.1924
1083,32.1419,57.8822, , ,195.2635,106.1095
1085,32.1939,57.9742, , ,195.2635,105.8898
1087,32.2459,-81.5567, , ,195.2635,105.0069
1089,32.2979,-12.5150, , ,195.2635,105.1134
1091,32.3499,-23.6763, , ,195.2635,104.9221
1093,32.4019,-62.7906, , ,195.2635,104.6815
1095,32.4539,62.4712, , ,195.2635,105.2242
1097,32.5059,80.9841, , ,195.2635,105.2583
1099,32.5579,-3.1353, , ,195.2635,104.8039
1101,32.6099,147.6054, , ,195.2635,105.3642
1103,32.6619,135.7222, , ,195.2635,105.1509
1105,32.7139,160.6905, , ,195.2635,105.1128
1107,32.7659,196.0951, , ,195.2635,105.1242
1109,32.8179,62.2807, , ,195.2635,104.3278
1111,32.8699,-51.0870, , ,195.2635,103.6239
1113,32.9219,168.9606, , ,195.2635,104.5225
1115,32.9739,46.1227, , ,195.2635,103.7744
1117,33.0259,113.8612, , ,195.2635,103.9416
1119,33.0779,258.0008, , ,195.2635,104.3711
1121,33.1299,18.8409, , ,195.2635,102.9539
1123,33.1819,74.3776, , ,195.2635,102.9581
1125,33.2339,104.6812, , ,195.2635,102.8398
1127,33.2859,-57.6984, , ,195.2635,101.8947
1129,33.3379,97.6639, , ,195.2635,102.6174
1131,33.3899,15.5060, , ,195.2635,102.1793
1133,33.4419,103.5402, , ,195.2635,102.5724
1135,33.4939,-69.1763, , ,195.2635,101.6898
1137,33.5459,38.5819, , ,195.2635,102.1346
1139,33.5979,3.0162, , ,195.2635,101.8764
1141,33.6499,111.9897, , ,195.2635,102.3262
1143,33.7019,65.3417, , ,195.2635,102.0142
1145,33.7539,85.9749, , ,195.2635,102.0315
1147,33.8059,64.5961, , ,195.2635,101.8427
1149,33.8579,-41.7940, , ,195.2635,101.2345
1151,33.9099,65.7328, , ,195.2635,101.6801
1153,33.9619,74.9160, , ,195.2635,101.6411
1155,34.0139,182.3261, , ,195.2635,101.9809
1157,34.0659,78.2388, , ,195.2635,101.2808
1159,34.1179,73.8639, , ,195.2635,101.0703
1161,34.1699,15.0148, , ,195.2635,100.5889
1163,34.2219,31.8901, , ,195.2635,100.4916
1165,34.2739,-133.7329, , ,195.2635,99.4900
1167,34.3259,-22.2156, , ,195.2635,99.8755
1169,34.3779,21.9695, , ,195.2635,99.9232
1171,34.4299,29.9147, , ,195.2635,99.7894
1173,34.4819,-21.6339, , ,195.2635,99.5017
1175,34.5339,-52.9134, , ,195.2635,99.3153
1177,34.5859,-96.3103, , ,195.2635,99.0674
1179,34.6379,0.1142, , ,195.2635,99.5239
1181,34.6899,37.3562, , ,195.2635,99.6718
1183,34.7419,-175.6793, , ,195.2635,98.5477
1185,34.7939,-45.7509, , ,195.2635,99.1555
1187,34.8459,-57.7534, , ,195.2635,99.0456
1189,34.8979,68.9032, , ,195.2635,99.6338
1191,34.9499,0.3685, , ,195.2635,99.1348
1193,35.0019,83.3120, , ,195.2635,99.3981
1195,35.0539,35.4547, , ,195.2635,99.0023
1197,35.1059,-48.4544, , ,195.2635,98.4219
1199,35.1579,21.8757, , ,195.2635,98.6210
1201,35.2099,59.1006, , ,195.2635,98.6497
1203,35.2619,14.1400, , ,195.2635,98.2611
1205,35.3139,-7.7418, , ,195.2635,97.9888
1207,35.3659,-28.6957, , ,195.2635,97.7205
1209,35.4179,20.8564, , ,195.2635,97.8296
1211,35.4699,102.4442, , ,195.2635,98.1020
1213,35.5219,86.3142, , ,195.2635,97.8757
1215,35.5739,114.7310, , ,195.2635,97.8767
1217,35.6259,64.1945, , ,195.2635,97.4735
1219,35.6779,169.1040, , ,195.2635,97.8661
1221,35.7299,82.2800, , ,195.2635,97.2765
1223,35.7819,-23.7008, , ,195.2635,96.5843
1225,35.8339,-61.4203, , ,195.2635,96.2423
1227,35.8859,133.0994, , ,195.2635,97.2568
1229,35.9379,131.5371, , ,195.2635,97.2579
1231,35.9899,-25.7964, , ,195.2635,96.4548
1233,36.0419,-54.3981, , ,195.2635,96.3157
1235,36.0939,68.4593, , ,195.2635,96.8929
1237,36.1459,3.7286, , ,195.2635,96.4316
1239,36.1979,-13.9680, , ,195.2635,96.2129
1241,36.2499,2.4953, , ,195.2635,96.1714
1243,36.3019,64.2405, , ,195.2635,96.3651
1245,36.3539,96.9268, , ,195.2635,96.4079
1247,36.4059,15.5503, , ,195.2635,95.8575
1249,36.4579,82.7846, , ,195.2635,96.0804
1251,36.5099,-34.4303, , ,195.2635,95.3404
1253,36.5619,68.1186, , ,195.2635,95.7491
1255,36.6139,9.6300, , ,195.2635,95.3151
1257,36.6659,136.2652, , ,195.2635,95.8496
1259,36.7179,-46.1824, , ,195.2635,94.7642
1261,36.7699,8.1452, , ,195.2635,94.9218
1263,36.8219,55.6001, , ,195.2635,94.9142
1265,36.8739,120.1620, , ,195.2635,94.9968
1267,36.9259,15.6703, , ,195.2635,94.1860
1269,36.9779,15.6019, , ,195.2635,93.9257
1271,37.0299,-25.7630, , ,195.2635,93.6519
1273,37.0819,63.3202, , ,195.2635,94.2797
1275,37.1339,48.7377, , ,195.2635,94.3555
1277,37.1859,64.6595, , ,195.2635,94.5927
1279,37.2379,-3.8730, , ,195.2635,94.3829
1281,37.2899,-1.0028, , ,195.2635,94.3851
1283,37.3419,107.3435, , ,195.2635,94.9445
1285,37.3939,51.6794, , ,195.2635,94.6380
1287,37.4459,97.5177, , ,195.2635,94.8670
1289,37.4979,-17.7319, , ,195.2635,94.1818
1291,37.5499,44.6600, , ,195.2635,94.3742
1293,37.6019,3.4998, , ,195.2635,94.0171
1295,37.6539,53.7554, , ,195.2635,94.1455
1297,37.7059,103.2364, , ,195.2635,94.2695
1299,37.7579,-20.8173, , ,195.2635,93.4696
1301,37.8099,104.0901, , ,195.2635,93.9966
1303,37.8619,-29.4157, , ,195.2635,93.1437
1305,37.9139,101.7182, , ,195.2635,93.7058
1307,37.9659,-55.8258, , ,195.2635,92.7096
1309,38.0179,-66.1805, , ,195.2635,92.4905
1311,38.0699,59.7698, , ,195.2635,93.0065
1313,38.1219,-16.4234, , ,195.2635,92.4327
1315,38.1739,-22.6907, , ,195.2635,92.2351
1317,38.2259,51.5776, , ,195.2635,92.7147
1319,38.2779,40.8642, , ,195.2635,92.7349
1321,38.3299,65.8870, , ,195.2635,92.9474
1323,38.3819,139.1874, , ,195.2635,93.4182
1325,38.4339,-26.7909, , ,195.2635,92.5517
1327,38.4859,-90.6021, , ,195.2635,92.1804
1329,38.5379,12.0234, , ,195.2635,92.7096
1331,38.5899,135.4748, , ,195.2635,93.3475
1333,38.6419,-7.2284, , ,195.2635,92.5542
1335,38.6939,83.6683, , ,195.2635,93.0182
1337,38.7459,5.8094, , ,195.2635,92.5730
1339,38.7979,-39.9162, , ,195.2635,92.2998
1341,38.8499,30.8996, , ,195.2635,92.6568
1343,38.9019,40.2870, , ,195.2635,92.6298
1345,38.9539,-60.7772, , ,195.2635,91.9523
1347,39.0059,8.5763, , ,195.2635,92.1986
1349,39.0579,-98.0760, , ,195.2635,91.4873
1351,39.1099,29.2174, , ,195.2635,92.0501
1353,39.1619,79.6729, , ,195.2635,92.2202
1355,39.2139,32.5636, , ,195.2635,91.8604
1357,39.2659,-22.7496, , ,195.2635,91.4545
1359,39.3179,-13.9122, , ,195.2635,91.3983
1361,39.3699,31.5203, , ,195.2635,91.6131
1363,39.4219,11.7951, , ,195.2635,91.5429
1365,39.4739,56.7205, , ,195.2635,91.8254
1367,39.5259,141.4479, , ,195.2635,92.3228
1369,39.5779,-7.5318, , ,195.2635,91.5500
1371,39.6299,-5.3971, , ,195.2635,91.5991
1373,39.6819,52.9847, , ,195.2635,91.9546
1375,39.7339,-14.5720, , ,195.2635,91.6241
1377,39.7859,117.6366, , ,195.2635,92.3799
1379,39.8379,16.0166, , ,195.2635,91.8657
1381,39.8899,-39.0004, , ,195.2635,91.6033
1383,39.9419,47.9373, , ,195.2635,92.1139
1384,39.9679,1.7181, , ,195.2635,91.8627