File: 2021/xrd/baseline_correction/mof90.ASC
  4.010        0
  4.036    -2490
  4.062    -3466
  4.088    -4249
  4.114    -4588
  4.140    -4725
  4.166    -4102
  4.192    -3236
  4.218    -1789
  4.244      346
  4.270     3115
  4.296     7081
  4.322    11952
  4.348    18894
  4.374    28131
  4.400    40643
  4.426    57716
  4.452    80826
  4.478   109643
  4.504   130358
  4.530   123385
  4.556    88929
  4.582    52520
  4.608    29028
  4.634    16808
  4.660    10678
  4.686     7293
  4.712     4619
  4.738     3290
  4.764     2158
  4.790     1287
  4.816      725
  4.842      433
  4.868      346
  4.894      311
  4.920      127
  4.946       31
  4.972      482
  4.998      841
  5.024      638
  5.050      559
  5.076      667
  5.102      377
  5.128      155
  5.154       88
  5.180      -22
  5.206     -150
  5.232     -235
  5.258     -201
  5.284     -269
  5.310     -300
  5.336     -201
  5.362     -155
  5.388     -115
  5.414      -68
  5.440       46
  5.466       26
  5.492      -78
  5.518      -93
  5.544     -106
  5.570      146
  5.596       95
  5.622      -55
  5.648      -38
  5.674     -108
  5.700       19
  5.726      208
  5.752        5
  5.778      -44
  5.804       83
  5.830      -36
  5.856     -168
  5.882       21
  5.908       52
  5.934      -51
  5.960     -118
  5.986     -275
  6.012      -26
  6.038      188
  6.064      212
  6.090      325
  6.116      633
  6.142     1235
  6.168     1905
  6.194     3046
  6.220     4314
  6.246     6422
  6.272     8831
  6.298    13461
  6.324    19714
  6.350    27672
  6.376    37668
  6.402    43524
  6.428    39876
  6.454    28245
  6.480    17176
  6.506    11081
  6.532     8032
  6.558     6620
  6.584     6142
  6.610     5288
  6.636     5041
  6.662     4477
  6.688     4349
  6.714     3997
  6.740     3549
  6.766     3508
  6.792     3400
  6.818     3109
  6.844     2894
  6.870     2595
  6.896     2741
  6.922     2533
  6.948     2436
  6.974     2130
  7.000     2050
  7.026     2210
  7.052     1733
  7.078     1985
  7.104     1455
  7.130     1819
  7.156     1596
  7.182     1511
  7.208     1379
  7.234     1112
  7.260     1052
  7.286      969
  7.312     1000
  7.338     1005
  7.364      945
  7.390      800
  7.416      659
  7.442      715
  7.468      787
  7.494      633
  7.520      784
  7.546      933
  7.572     1086
  7.598     1580
  7.624     1999
  7.650     2564
  7.676     3742
  7.702     5501
  7.728     8184
  7.754    12246
  7.780    17933
  7.806    26216
  7.832    34244
  7.858    37271
  7.884    32020
  7.910    21379
  7.936    11953
  7.962     6164
  7.988     3417
  8.014     2243
  8.040     1463
  8.066      877
  8.092      613
  8.118      401
  8.144      162
  8.170      175
  8.196      106
  8.222       33
  8.248      -89
  8.274     -111
  8.300      -63
  8.326      -35
  8.352       10
  8.378     -138
  8.404     -113
  8.430       -5
  8.456       87
  8.482      -16
  8.508      -87
  8.534      -61
  8.560      -50
  8.586      -73
  8.612     -101
  8.638     -191
  8.664     -153
  8.690       98
  8.716       90
  8.742       60
  8.768       32
  8.794      199
  8.820      231
  8.846      594
  8.872     1015
  8.898     1187
  8.924     2012
  8.950     3147
  8.976     5172
  9.002     7948
  9.028    12240
  9.054    16907
  9.080    19745
  9.106    17349
  9.132    11517
  9.158     6050
  9.184     3307
  9.210     1880
  9.236     1372
  9.262      902
  9.288      572
  9.314      296
  9.340      228
  9.366      204
  9.392      258
  9.418      121
  9.444      -41
  9.470       17
  9.496       81
  9.522       58
  9.548      -63
  9.574     -211
  9.600      -81
  9.626      116
  9.652       33
  9.678       35
  9.704       45
  9.730       33
  9.756       54
  9.782        6
  9.808       57
  9.834      -54
  9.860      -91
  9.886       87
  9.912       96
  9.938     -155
  9.964      -98
  9.990       94
 10.016      195
 10.042      251
 10.068      543
 10.094     1096
 10.120     1721
 10.146     2127
 10.172     2145
 10.198     1886
 10.224     1117
 10.250      610
 10.276      547
 10.302      322
 10.328       53
 10.354       24
 10.380       21
 10.406        9
 10.432       87
 10.458       44
 10.484     -156
 10.510     -152
 10.536      -10
 10.562        7
 10.588       50
 10.614       23
 10.640     -137
 10.666     -148
 10.692     -102
 10.718     -126
 10.744     -126
 10.770      -53
 10.796       58
 10.822       78
 10.848        5
 10.874      113
 10.900      236
 10.926      228
 10.952      242
 10.978      664
 11.004     1356
 11.030     2152
 11.056     3819
 11.082     6199
 11.108     9027
 11.134    10580
 11.160    10114
 11.186     7553
 11.212     4332
 11.238     1981
 11.264      975
 11.290      605
 11.316      211
 11.342      242
 11.368       34
 11.394     -120
 11.420       85
 11.446       26
 11.472      -44
 11.498        9
 11.524       58
 11.550      -89
 11.576       39
 11.602      144
 11.628       15
 11.654       13
 11.680       48
 11.706     -135
 11.732       86
 11.758       59
 11.784     -132
 11.810       65
 11.836      -72
 11.862      152
 11.888       92
 11.914       19
 11.940      -96
 11.966      -44
 11.992       78
 12.018      105
 12.044      -11
 12.070      -61
 12.096     -166
 12.122        2
 12.148       72
 12.174       64
 12.200     -124
 12.226       17
 12.252       42
 12.278      153
 12.304      146
 12.330       85
 12.356      127
 12.382       44
 12.408     -118
 12.434      -13
 12.460       21
 12.486      146
 12.512      107
 12.538       -9
 12.564       21
 12.590      136
 12.616       25
 12.642      -84
 12.668      -20
 12.694       72
 12.720        0
 12.746       23
 12.772       41
 12.798     -174
 12.824      -79
 12.850       -4
 12.876      -21
 12.902        7
 12.928        2
 12.954        4
 12.980      -55
 13.006     -136
 13.032     -188
 13.058      -95
 13.084        3
 13.110      -63
 13.136      -50
 13.162       47
 13.188       60
 13.214       42
 13.240        5
 13.266       35
 13.292       -7
 13.318      -78
 13.344       67
 13.370      121
 13.396      130
 13.422      228
 13.448      329
 13.474      386
 13.500      576
 13.526      975
 13.552     1876
 13.578     3037
 13.604     4853
 13.630     7408
 13.656     9153
 13.682     9374
 13.708     7484
 13.734     4410
 13.760     2326
 13.786     1085
 13.812      654
 13.838      295
 13.864       66
 13.890       15
 13.916       81
 13.942       53
 13.968      117
 13.994      132
 14.020       57
 14.046     -101
 14.072       -7
 14.098       61
 14.124       36
 14.150      -49
 14.176      -52
 14.202      -52
 14.228     -130
 14.254     -282
 14.280     -115
 14.306       62
 14.332      146
 14.358       90
 14.384      -58
 14.410      201
 14.436      114
 14.462       93
 14.488      176
 14.514      -27
 14.540      123
 14.566       61
 14.592       57
 14.618       11
 14.644      -48
 14.670     -248
 14.696      -10
 14.722      -45
 14.748       80
 14.774       22
 14.800        0
 14.826     -181
 14.852     -256
 14.878      -76
 14.904       19
 14.930       -3
 14.956      -26
 14.982      -50
 15.008      -44
 15.034       66
 15.060      139
 15.086       -4
 15.112        9
 15.138      153
 15.164       80
 15.190       77
 15.216       59
 15.242        6
 15.268     -134
 15.294       -8
 15.320     -103
 15.346     -133
 15.372      -31
 15.398      -15
 15.424      -99
 15.450       -7
 15.476       73
 15.502      -16
 15.528      -44
 15.554        5
 15.580      -41
 15.606       -4
 15.632       64
 15.658       34
 15.684        7
 15.710      121
 15.736      297
 15.762      464
 15.788      627
 15.814      645
 15.840      516
 15.866      374
 15.892      191
 15.918      -14
 15.944      -48
 15.970       24
 15.996       61
 16.022       96
 16.048        2
 16.074      -29
 16.100       49
 16.126      -17
 16.152      -62
 16.178      -54
 16.204       60
 16.230      106
 16.256       72
 16.282       23
 16.308      120
 16.334       56
 16.360       78
 16.386       84
 16.412      178
 16.438      143
 16.464      135
 16.490       63
 16.516      147
 16.542       95
 16.568       -2
 16.594       35
 16.620      142
 16.646      -92
 16.672       -2
 16.698      -22
 16.724      -23
 16.750       58
 16.776      -22
 16.802       25
 16.828     -169
 16.854      -21
 16.880        9
 16.906       86
 16.932       13
 16.958        5
 16.984       62
 17.010        3
 17.036       60
 17.062      194
 17.088       79
 17.114      180
 17.140       21
 17.166       30
 17.192      135
 17.218      -60
 17.244     -183
 17.270      -93
 17.296      -38
 17.322       -2
 17.348      -13
 17.374      -18
 17.400      113
 17.426       65
 17.452       32
 17.478       66
 17.504       46
 17.530        0
 17.556      -94
 17.582       84
 17.608       28
 17.634      -57
 17.660      -50
 17.686      -96
 17.712      -32
 17.738      -30
 17.764      -75
 17.790     -136
 17.816       35
 17.842       34
 17.868      101
 17.894       72
 17.920       24
 17.946      -33
 17.972      -33
 17.998      -20
 18.024      -29
 18.050       20
 18.076       -3
 18.102       68
 18.128      135
 18.154       30
 18.180       59
 18.206      241
 18.232      401
 18.258      629
 18.284      658
 18.310      486
 18.336      337
 18.362      218
 18.388      154
 18.414       51
 18.440        8
 18.466       98
 18.492       97
 18.518      -20
 18.544      -91
 18.570      -59
 18.596       51
 18.622       70
 18.648      -38
 18.674       -9
 18.700      108
 18.726      224
 18.752      377
 18.778      765
 18.804     1155
 18.830     1401
 18.856     1534
 18.882     1438
 18.908     1068
 18.934      550
 18.960      319
 18.986      182
 19.012      -67
 19.038        9
 19.064      -11
 19.090      -60
 19.116       -5
 19.142       69
 19.168      145
 19.194      -13
 19.220       34
 19.246      -57
 19.272     -123
 19.298     -105
 19.324      -43
 19.350      113
 19.376       78
 19.402       55
 19.428       -9
 19.454       19
 19.480      -54
 19.506        9
 19.532      -24
 19.558      -73
 19.584      -17
 19.610       -1
 19.636       65
 19.662       28
 19.688     -106
 19.714       76
 19.740      -47
 19.766      -73
 19.792     -104
 19.818      -67
 19.844     -177
 19.870       76
 19.896      440
 19.922      200
 19.948      390
 19.974      216
 20.000      287
 20.026       86
 20.052     -207
 20.078     -295
 20.104      -74
 20.130     -133
 20.156      113
 20.182       41
 20.208       -5
 20.234      -40
 20.260      -58
 20.286     -160
 20.312      -34
 20.338       68
 20.364      251
 20.390      474
 20.416      903
 20.442     1113
 20.468     1008
 20.494      900
 20.520      633
 20.546      413
 20.572      330
 20.598       64
 20.624      -56
 20.650      -20
 20.676      -99
 20.702      -96
 20.728     -116
 20.754     -140
 20.780      -54
 20.806       39
 20.832      147
 20.858      249
 20.884      518
 20.910     1062
 20.936     1652
 20.962     2099
 20.988     2244
 21.014     1928
 21.040     1364
 21.066      790
 21.092      321
 21.118       94
 21.144      -10
 21.170      -63
 21.196       11
 21.222      -96
 21.248     -234
 21.274     -113
 21.300     -115
 21.326        4
 21.352      154
 21.378      203
 21.404      303
 21.430      514
 21.456      748
 21.482      777
 21.508      639
 21.534      404
 21.560       95
 21.586       33
 21.612       66
 21.638       64
 21.664      -76
 21.690       45
 21.716      -56
 21.742      -12
 21.768      198
 21.794       33
 21.820      133
 21.846      129
 21.872      -47
 21.898       94
 21.924      -26
 21.950     -132
 21.976      -53
 22.002      126
 22.028       24
 22.054     -133
 22.080       41
 22.106       27
 22.132      221
 22.158      100
 22.184       59
 22.210      209
 22.236       53
 22.262      224
 22.288       93
 22.314     -135
 22.340      304
 22.366      462
 22.392      634
 22.418      997
 22.444     1250
 22.470     1010
 22.496      840
 22.522      647
 22.548      265
 22.574       21
 22.600      107
 22.626       17
 22.652      -42
 22.678       26
 22.704       28
 22.730       44
 22.756     -119
 22.782      111
 22.808      -31
 22.834      125
 22.860      123
 22.886       79
 22.912      145
 22.938      238
 22.964      223
 22.990      156
 23.016      218
 23.042       35
 23.068      -19
 23.094      -52
 23.120      -62
 23.146      -24
 23.172      -16
 23.198       31
 23.224       47
 23.250      183
 23.276      278
 23.302      596
 23.328     1070
 23.354     1600
 23.380     1635
 23.406     1460
 23.432     1221
 23.458      832
 23.484      428
 23.510      192
 23.536      185
 23.562      118
 23.588        0
 23.614      -73
 23.640      -42
 23.666        1
 23.692       59
 23.718       96
 23.744      122
 23.770      148
 23.796      105
 23.822      151
 23.848      119
 23.874       35
 23.900       58
 23.926      118
 23.952       17
 23.978       53
 24.004      -13
 24.030     -114
 24.056      -84
 24.082      -92
 24.108      -67
 24.134       55
 24.160       82
 24.186      -75
 24.212       -5
 24.238       -4
 24.264       -6
 24.290       -9
 24.316       55
 24.342       31
 24.368      -91
 24.394       27
 24.420       37
 24.446      -42
 24.472       90
 24.498       72
 24.524       21
 24.550      -44
 24.576     -104
 24.602       12
 24.628       95
 24.654      137
 24.680      181
 24.706      300
 24.732      350
 24.758       69
 24.784       10
 24.810       32
 24.836       40
 24.862      -82
 24.888       70
 24.914      -88
 24.940     -204
 24.966     -263
 24.992     -111
 25.018        7
 25.044     -147
 25.070      -27
 25.096       32
 25.122      223
 25.148      276
 25.174      249
 25.200      118
 25.226      132
 25.252       36
 25.278     -105
 25.304       71
 25.330       93
 25.356     -112
 25.382     -104
 25.408     -104
 25.434       62
 25.460       -2
 25.486      -60
 25.512      191
 25.538       80
 25.564       82
 25.590       -3
 25.616        8
 25.642       69
 25.668      120
 25.694      -33
 25.720      -87
 25.746      -35
 25.772       58
 25.798       26
 25.824      -19
 25.850      -47
 25.876       95
 25.902      128
 25.928       28
 25.954      114
 25.980      -41
 26.006      -33
 26.032       69
 26.058      -17
 26.084      -35
 26.110       20
 26.136      -38
 26.162      -71
 26.188       44
 26.214       68
 26.240        9
 26.266      -67
 26.292      -52
 26.318       87
 26.344      172
 26.370      195
 26.396      228
 26.422      189
 26.448       44
 26.474      -52
 26.500      -44
 26.526      -24
 26.552      -71
 26.578      -76
 26.604      -94
 26.630     -124
 26.656      -13
 26.682      -16
 26.708      -76
 26.734      381
 26.760      543
 26.786      507
 26.812      563
 26.838      532
 26.864      427
 26.890      195
 26.916       54
 26.942     -109
 26.968       43
 26.994       34
 27.020     -112
 27.046      -47
 27.072        4
 27.098       78
 27.124       12
 27.150      336
 27.176      538
 27.202      581
 27.228      503
 27.254      334
 27.280      232
 27.306       84
 27.332       64
 27.358      109
 27.384       31
 27.410       12
 27.436      -84
 27.462      -25
 27.488       35
 27.514      -67
 27.540      -34
 27.566      102
 27.592       35
 27.618       70
 27.644       28
 27.670      -86
 27.696     -112
 27.722      -34
 27.748      -62
 27.774       17
 27.800      -42
 27.826       24
 27.852       91
 27.878       82
 27.904      404
 27.930      595
 27.956      762
 27.982      834
 28.008      683
 28.034      648
 28.060      424
 28.086      197
 28.112       -6
 28.138       72
 28.164     -160
 28.190      -77
 28.216      -30
 28.242      -91
 28.268      -89
 28.294       30
 28.320      137
 28.346      111
 28.372      141
 28.398      185
 28.424      155
 28.450      142
 28.476       54
 28.502       83
 28.528        9
 28.554      -44
 28.580        9
 28.606      -19
 28.632       45
 28.658      -89
 28.684     -164
 28.710      -83
 28.736       15
 28.762       18
 28.788      -60
 28.814       13
 28.840       36
 28.866      -62
 28.892      -87
 28.918      -46
 28.944      -50
 28.970      -64
 28.996      -17
 29.022       49
 29.048        9
 29.074      -72
 29.100       58
 29.126      210
 29.152      148
 29.178        2
 29.204        1
 29.230       52
 29.256       51
 29.282       20
 29.308      -78
 29.334       52
 29.360      141
 29.386      140
 29.412      330
 29.438      666
 29.464      695
 29.490      826
 29.516      811
 29.542      592
 29.568      394
 29.594      347
 29.620      260
 29.646      137
 29.672      140
 29.698      121
 29.724      -50
 29.750      -13
 29.776       59
 29.802      -58
 29.828      112
 29.854       65
 29.880     -115
 29.906      -67
 29.932      -81
 29.958       73
 29.984      -61
 30.010       79
 30.036      -56
 30.062     -171
 30.088       15
 30.114      158
 30.140      -11
 30.166      131
 30.192        5
 30.218       22
 30.244      -16
 30.270     -140
 30.296      131
 30.322      -32
 30.348      -99
 30.374      -78
 30.400      147
 30.426      -59
 30.452      -70
 30.478       22
 30.504       89
 30.530      214
 30.556      208
 30.582      222
 30.608      282
 30.634       57
 30.660       22
 30.686       57
 30.712      -37
 30.738     -110
 30.764      -54
 30.790      -27
 30.816      -43
 30.842       40
 30.868      -86
 30.894      -31
 30.920       55
 30.946       -3
 30.972       13
 30.998      -68
 31.024      -55
 31.050      -80
 31.076      -34
 31.102      -49
 31.128      -10
 31.154      -29
 31.180        8
 31.206      112
 31.232      172
 31.258      201
 31.284      199
 31.310      103
 31.336       92
 31.362      116
 31.388      -45
 31.414      -78
 31.440       -4
 31.466       -7
 31.492      -23
 31.518      -15
 31.544        9
 31.570        2
 31.596        1
 31.622      -24
 31.648        5
 31.674       97
 31.700      144
 31.726      142
 31.752      105
 31.778      169
 31.804       91
 31.830     -133
 31.856      -36
 31.882      113
 31.908       68
 31.934      -27
 31.960       93
 31.986      284
 32.012      169
 32.038       24
 32.064       36
 32.090       20
 32.116      -34
 32.142      -55
 32.168      -40
 32.194       -2
 32.220       11
 32.246       33
 32.272       73
 32.298       16
 32.324       66
 32.350     -108
 32.376      -55
 32.402        7
 32.428       93
 32.454     -120
 32.480      -17
 32.506       33
 32.532     -164
 32.558      -22
 32.584      133
 32.610      195
 32.636      210
 32.662      370
 32.688      252
 32.714      290
 32.740      190
 32.766       25
 32.792      -52
 32.818      -16
 32.844      -44
 32.870      140
 32.896       54
 32.922       68
 32.948       16
 32.974      251
 33.000       25
 33.026      175
 33.052      -21
 33.078      -24
 33.104      163
 33.130     -106
 33.156       25
 33.182      101
 33.208      -35
 33.234       56
 33.260      -40
 33.286      -35
 33.312       19
 33.338       28
 33.364      -36
 33.390      -98
 33.416      -35
 33.442      -90
 33.468       55
 33.494      -63
 33.520       32
 33.546       53
 33.572       72
 33.598      -48
 33.624       -4
 33.650       45
 33.676      105
 33.702       34
 33.728       -7
 33.754      -54
 33.780      -43
 33.806       62
 33.832       88
 33.858       21
 33.884       38
 33.910       23
 33.936      106
 33.962      224
 33.988      273
 34.014      263
 34.040      208
 34.066      172
 34.092      125
 34.118       27
 34.144       72
 34.170       79
 34.196      -36
 34.222      -50
 34.248      -36
 34.274      -23
 34.300      -59
 34.326      -43
 34.352       37
 34.378       -2
 34.404       -1
 34.430       14
 34.456        0
 34.482       -2
 34.508      -75
 34.534       42
 34.560       44
 34.586      -57
 34.612       -1
 34.638       80
 34.664       -3
 34.690      -75
 34.716       -5
 34.742       -8
 34.768       16
 34.794       21
 34.820      162
 34.846      173
 34.872      108
 34.898        5
 34.924      170
 34.950       89
 34.976       35
 35.002       73
 35.028       84
 35.054       57
 35.080       18
 35.106      -31
 35.132       23
 35.158       21
 35.184       -9
 35.210      -14
 35.236      -35
 35.262       87
 35.288       78
 35.314       48
 35.340       41
 35.366      -38
 35.392      -48
 35.418       66
 35.444      -27
 35.470      -88
 35.496      151
 35.522      132
 35.548      176
 35.574       70
 35.600      113
 35.626       97
 35.652        2
 35.678       79
 35.704      -90
 35.730     -132
 35.756      -62
 35.782       -5
 35.808       46
 35.834      -69
 35.860      -12
 35.886       85
 35.912      116
 35.938       21
 35.964        6
 35.990       13
 36.016       -9
 36.042      -24
 36.068      -25
 36.094       69
 36.120       -5
 36.146        2
 36.172       47
 36.198       90
 36.224       40
 36.250       -6
 36.276        8
 36.302       23
 36.328      -13
 36.354      -51
 36.380      -43
 36.406        5
 36.432      -53
 36.458      -53
 36.484     -103
 36.510      -23
 36.536       44
 36.562       38
 36.588       -8
 36.614       -3
 36.640       13
 36.666      -49
 36.692      -88
 36.718      -71
 36.744        1
 36.770       10
 36.796       -2
 36.822       30
 36.848       71
 36.874       70
 36.900       -4
 36.926      -13
 36.952       34
 36.978        8
 37.004      -59
 37.030       33
 37.056       47
 37.082       76
 37.108       52
 37.134       31
 37.160       46
 37.186      -22
 37.212      -34
 37.238      -20
 37.264       52
 37.290       63
 37.316       44
 37.342       93
 37.368      126
 37.394      184
 37.420      107
 37.446      130
 37.472      182
 37.498       45
 37.524      -56
 37.550       45
 37.576       46
 37.602      105
 37.628       37
 37.654       -4
 37.680      137
 37.706       96
 37.732       94
 37.758       -6
 37.784      116
 37.810       95
 37.836      -57
 37.862       46
 37.888       -1
 37.914      -54
 37.940      -16
 37.966       43
 37.992       53
 38.018      -76
 38.044       65
 38.070       19
 38.096      -56
 38.122      -92
 38.148        8
 38.174       69
 38.200      -11
 38.226      -57
 38.252       51
 38.278       39
 38.304      -11
 38.330       29
 38.356      -24
 38.382       18
 38.408       16
 38.434      -53
 38.460       78
 38.486      166
 38.512      176
 38.538      138
 38.564      -11
 38.590       83
 38.616      184
 38.642      238
 38.668       83
 38.694       65
 38.720       56
 38.746      108
 38.772       11
 38.798      112
 38.824      112
 38.850       58
 38.876      -40
 38.902      -80
 38.928       34
 38.954       42
 38.980       22
 39.006      -31
 39.032      -50
 39.058      -16
 39.084      -68
 39.110      -46
 39.136       72
 39.162      111
 39.188       64
 39.214       54
 39.240       66
 39.266      108
 39.292       97
 39.318        6
 39.344      -31
 39.370       -1
 39.396      -12
 39.422       19
 39.448       59
 39.474       26
 39.500      111
 39.526      166
 39.552       58
 39.578      -23
 39.604       28
 39.630      151
 39.656       85
 39.682       -3
 39.708       -1
 39.734       20
 39.760       52
 39.786       53
 39.812       44
 39.838       44
 39.864       96
 39.890      -14
 39.916      -68
 39.942        4
 39.968        2