File: 2021/xrd/baseline_correction/mof90.CSV
No.,Pos. [°2Th.],Iobs [cts],Icalc [cts],Iback [cts],CT [s],ESD
1,4.0099,0.0000, , ,195.2635,260.4758
3,4.0619,-3465.97, , ,195.2635,251.3228
5,4.1139,-4588.4, , ,195.2635,246.6217
7,4.1659,-4101.95, , ,195.2635,245.1331
9,4.2179,-1788.73, , ,195.2635,247.3560
11,4.2699,3115, , ,195.2635,254.6468
13,4.3219,11952.5, , ,195.2635,269.0977
15,4.3739,28131.1, , ,195.2635,295.5051
17,4.4259,57715.8, , ,195.2635,340.0574
19,4.4779,109643, , ,195.2635,407.7958
21,4.5299,123385, , ,195.2635,422.8121
23,4.5819,52520.3, , ,195.2635,326.5531
25,4.6339,16807.7, , ,195.2635,263.9230
27,4.6859,7293.38, , ,195.2635,242.6358
29,4.7379,3289.56, , ,195.2635,231.4610
31,4.7899,1286.97, , ,195.2635,224.1701
33,4.8419,433.3912, , ,195.2635,219.2700
35,4.8939,311.2474, , ,195.2635,215.9580
37,4.9459,30.8521, , ,195.2635,212.2219
39,4.9979,840.9738, , ,195.2635,210.8711
41,5.0499,559.4991, , ,195.2635,206.8902
43,5.1019,376.5051, , ,195.2635,203.0737
45,5.1539,87.8093, , ,195.2635,198.9186
47,5.2059,-150.0792, , ,195.2635,195.4162
49,5.2579,-200.7670, , ,195.2635,192.9557
51,5.3099,-300.3262, , ,195.2635,190.3351
53,5.3619,-155.3703, , ,195.2635,188.3282
55,5.4139,-68.4319, , ,195.2635,186.1439
57,5.4659,26.0759, , ,195.2635,185.2712
59,5.5179,-93.1958, , ,195.2635,183.8137
61,5.5699,145.6696, , ,195.2635,183.3239
63,5.6219,-54.6306, , ,195.2635,181.6279
65,5.6739,-108.2200, , ,195.2635,180.7245
67,5.7259,208.1563, , ,195.2635,181.2424
69,5.7779,-43.8959, , ,195.2635,180.1885
71,5.8299,-35.7928, , ,195.2635,179.8530
73,5.8819,21.2338, , ,195.2635,179.6531
75,5.9339,-51.1084, , ,195.2635,179.9625
77,5.9859,-275.1957, , ,195.2635,179.8501
79,6.0379,188.1149, , ,195.2635,181.6397
81,6.0899,324.6419, , ,195.2635,182.5189
83,6.1419,1234.85, , ,195.2635,185.4245
85,6.1939,3046.15, , ,195.2635,190.5984
87,6.2459,6421.62, , ,195.2635,199.5931
89,6.2979,13461.4, , ,195.2635,216.8212
91,6.3499,27672.2, , ,195.2635,247.7022
93,6.4019,43524.2, , ,195.2635,278.0050
95,6.4539,28244.7, , ,195.2635,249.1703
97,6.5059,11081.2, , ,195.2635,212.1338
99,6.5579,6619.59, , ,195.2635,201.5381
101,6.6099,5288.17, , ,195.2635,198.3340
103,6.6619,4476.96, , ,195.2635,196.3339
105,6.7139,3996.57, , ,195.2635,195.1626
107,6.7659,3508.21, , ,195.2635,193.9638
109,6.8179,3109.46, , ,195.2635,192.9898
111,6.8699,2594.87, , ,195.2635,191.5642
113,6.9219,2533.33, , ,195.2635,191.3158
115,6.9739,2129.64, , ,195.2635,190.1695
117,7.0259,2209.96, , ,195.2635,190.2923
119,7.0779,1984.86, , ,195.2635,189.5400
121,7.1299,1818.81, , ,195.2635,188.8695
123,7.1819,1511.15, , ,195.2635,187.8201
125,7.2339,1111.53, , ,195.2635,186.5183
127,7.2859,968.8831, , ,195.2635,185.8999
129,7.3379,1005.3, , ,195.2635,185.7620
131,7.3899,799.6623, , ,195.2635,184.9709
133,7.4419,715.0548, , ,195.2635,184.5046
135,7.4939,633.1566, , ,195.2635,184.0445
137,7.5459,933.4934, , ,195.2635,184.5482
139,7.5979,1579.97, , ,195.2635,185.9107
141,7.6499,2564.38, , ,195.2635,188.1634
143,7.7019,5500.87, , ,195.2635,195.4487
145,7.7539,12245.5, , ,195.2635,211.6675
147,7.8059,26216.3, , ,195.2635,242.0321
149,7.8579,37270.9, , ,195.2635,263.5142
151,7.9099,21379.3, , ,195.2635,230.9842
153,7.9619,6164.36, , ,195.2635,194.7929
155,8.0139,2242.91, , ,195.2635,183.8556
157,8.0659,876.8216, , ,195.2635,179.4194
159,8.1179,401.0092, , ,195.2635,177.3978
161,8.1699,174.9624, , ,195.2635,176.0638
163,8.2219,33.2884, , ,195.2635,174.9608
165,8.2739,-110.5705, , ,195.2635,173.7530
167,8.3259,-35.2102, , ,195.2635,173.1708
169,8.3779,-137.8736, , ,195.2635,172.0701
171,8.4299,-4.9668, , ,195.2635,171.6499
173,8.4819,-15.6607, , ,195.2635,170.8739
175,8.5339,-60.5295, , ,195.2635,170.0592
177,8.5859,-73.0077, , ,195.2635,169.3363
179,8.6379,-191.1934, , ,195.2635,168.2965
181,8.6899,98.2543, , ,195.2635,168.4644
183,8.7419,59.5456, , ,195.2635,168.0384
185,8.7939,198.9665, , ,195.2635,168.1420
187,8.8459,594.0955, , ,195.2635,169.0036
189,8.8979,1187.21, , ,195.2635,170.4427
191,8.9499,3147.05, , ,195.2635,175.7246
193,9.0019,7947.6, , ,195.2635,188.4713
195,9.0539,16907.4, , ,195.2635,210.5304
197,9.1059,17349.2, , ,195.2635,211.2028
199,9.1579,6049.9, , ,195.2635,182.0689
201,9.2099,1880.03, , ,195.2635,169.7675
203,9.2619,901.9451, , ,195.2635,166.3872
205,9.3139,295.9922, , ,195.2635,164.0747
207,9.3659,203.7187, , ,195.2635,163.3096
209,9.4179,121.4766, , ,195.2635,162.4892
211,9.4699,17.4394, , ,195.2635,161.5144
213,9.5219,58.1765, , ,195.2635,160.9839
215,9.5739,-210.9892, , ,195.2635,159.4830
217,9.6259,115.6091, , ,195.2635,159.8425
219,9.6779,34.9737, , ,195.2635,159.0558
221,9.7299,33.2873, , ,195.2635,158.5145
223,9.7819,5.9274, , ,195.2635,157.8900
225,9.8339,-53.8400, , ,195.2635,157.1600
227,9.8859,87.2618, , ,195.2635,157.1660
229,9.9379,-155.2629, , ,195.2635,156.0462
231,9.9899,94.2488, , ,195.2635,156.4982
233,10.0419,250.9285, , ,195.2635,156.6530
235,10.0939,1095.74, , ,195.2635,158.9866
237,10.1459,2127.14, , ,195.2635,161.7035
239,10.1979,1886.19, , ,195.2635,160.4586
241,10.2499,610.2825, , ,195.2635,155.9197
243,10.3019,321.9198, , ,195.2635,154.4748
245,10.3539,24.2265, , ,195.2635,152.9859
247,10.4059,8.5619, , ,195.2635,152.4103
249,10.4579,44.4868, , ,195.2635,152.0023
251,10.5099,-152.1933, , ,195.2635,150.8241
253,10.5619,7.1171, , ,195.2635,150.8215
255,10.6139,22.9767, , ,195.2635,150.5792
257,10.6659,-147.7588, , ,195.2635,149.7146
259,10.7179,-125.6310, , ,195.2635,149.4915
261,10.7699,-53.4683, , ,195.2635,149.4355
263,10.8219,77.7021, , ,195.2635,149.5136
265,10.8739,113.0287, , ,195.2635,149.2074
267,10.9259,227.9447, , ,195.2635,149.1677
269,10.9779,664.1604, , ,195.2635,150.2013
271,11.0299,2152.45, , ,195.2635,154.6672
273,11.0819,6199.44, , ,195.2635,166.8597
275,11.1339,10579.6, , ,195.2635,179.1523
277,11.1859,7552.73, , ,195.2635,170.1232
279,11.2379,1980.91, , ,195.2635,152.4575
281,11.2899,604.7982, , ,195.2635,147.3549
283,11.3419,242.2031, , ,195.2635,145.4998
285,11.3939,-119.8232, , ,195.2635,143.6228
287,11.4459,26.3540, , ,195.2635,143.5027
289,11.4979,9.4807, , ,195.2635,142.8127
291,11.5499,-88.7130, , ,195.2635,141.8949
293,11.6019,144.1855, , ,195.2635,142.1406
295,11.6539,13.4531, , ,195.2635,141.1032
297,11.7059,-135.4234, , ,195.2635,139.9933
299,11.7579,59.1851, , ,195.2635,140.2397
301,11.8099,65.2023, , ,195.2635,139.9471
303,11.8619,151.7825, , ,195.2635,139.9421
305,11.9139,18.6412, , ,195.2635,139.1497
307,11.9659,-44.1635, , ,195.2635,138.6068
309,12.0179,105.4598, , ,195.2635,138.7696
311,12.0699,-61.3665, , ,195.2635,137.7888
313,12.1219,1.5502, , ,195.2635,137.6380
315,12.1739,63.8118, , ,195.2635,137.4847
317,12.2259,17.3455, , ,195.2635,136.9518
319,12.2779,152.7850, , ,195.2635,137.0989
321,12.3299,85.0671, , ,195.2635,136.5038
323,12.3819,43.5892, , ,195.2635,136.0026
325,12.4339,-13.2312, , ,195.2635,135.4429
327,12.4859,146.0236, , ,195.2635,135.8922
329,12.5379,-9.0053, , ,195.2635,135.1826
331,12.5899,136.4193, , ,195.2635,135.5818
333,12.6419,-84.1434, , ,195.2635,134.6273
335,12.6939,71.8798, , ,195.2635,135.0765
337,12.7459,23.0154, , ,195.2635,134.7752
339,12.7979,-174.3549, , ,195.2635,133.9199
341,12.8499,-3.6457, , ,195.2635,134.4351
343,12.9019,7.0485, , ,195.2635,134.3542
345,12.9539,3.9005, , ,195.2635,134.0328
347,13.0059,-135.8278, , ,195.2635,133.1989
349,13.0579,-94.5975, , ,195.2635,133.0416
351,13.1099,-62.6874, , ,195.2635,132.8490
353,13.1619,46.8550, , ,195.2635,133.0762
355,13.2139,42.3428, , ,195.2635,133.0024
357,13.2659,35.4271, , ,195.2635,132.9194
359,13.3179,-78.3896, , ,195.2635,132.4335
361,13.3699,121.2745, , ,195.2635,133.1283
363,13.4219,228.2800, , ,195.2635,133.4729
365,13.4739,386.4198, , ,195.2635,134.0075
367,13.5259,974.6576, , ,195.2635,136.1290
369,13.5779,3036.59, , ,195.2635,143.4500
371,13.6299,7408.14, , ,195.2635,157.8448
373,13.6819,9373.87, , ,195.2635,163.7891
375,13.7339,4409.54, , ,195.2635,147.6777
377,13.7859,1084.6, , ,195.2635,135.7569
379,13.8379,295.2509, , ,195.2635,132.6150
381,13.8899,14.5010, , ,195.2635,131.1941
383,13.9419,52.9065, , ,195.2635,130.9816
385,13.9939,132.3793, , ,195.2635,130.9257
387,14.0459,-101.1925, , ,195.2635,129.6683
389,14.0979,61.1328, , ,195.2635,129.9214
391,14.1499,-49.3864, , ,195.2635,129.1121
393,14.2019,-52.2135, , ,195.2635,128.7168
395,14.2539,-281.6301, , ,195.2635,127.4342
397,14.3059,61.7025, , ,195.2635,128.3889
399,14.3579,89.8233, , ,195.2635,128.3521
401,14.4099,200.5682, , ,195.2635,128.6369
403,14.4619,93.2234, , ,195.2635,128.0725
405,14.5139,-26.9871, , ,195.2635,127.4551
407,14.5659,61.1093, , ,195.2635,127.6532
409,14.6179,10.5752, , ,195.2635,127.3077
411,14.6699,-247.5082, , ,195.2635,126.1412
413,14.7219,-44.7652, , ,195.2635,126.7943
415,14.7739,21.7632, , ,195.2635,126.9085
417,14.8259,-180.7173, , ,195.2635,125.9513
419,14.8779,-75.5175, , ,195.2635,126.2116
421,14.9299,-3.0739, , ,195.2635,126.3418
423,14.9819,-49.5675, , ,195.2635,126.0008
425,15.0339,65.5331, , ,195.2635,126.2228
427,15.0859,-3.8005, , ,195.2635,125.6352
429,15.1379,152.8305, , ,195.2635,125.9451
431,15.1899,77.4590, , ,195.2635,125.3321
433,15.2419,6.1099, , ,195.2635,124.7322
435,15.2939,-7.9926, , ,195.2635,124.7504
437,15.3459,-133.0487, , ,195.2635,124.3233
439,15.3979,-14.8484, , ,195.2635,124.8725
441,15.4499,-6.8292, , ,195.2635,124.9793
443,15.5019,-15.9444, , ,195.2635,124.9673
445,15.5539,4.8305, , ,195.2635,125.0247
447,15.6059,-4.1371, , ,195.2635,124.9630
449,15.6579,33.9861, , ,195.2635,125.0897
451,15.7099,121.4347, , ,195.2635,125.4131
453,15.7619,464.1422, , ,195.2635,126.7466
455,15.8139,645.0016, , ,195.2635,127.4328
457,15.8659,373.8934, , ,195.2635,126.3391
459,15.9179,-13.8211, , ,195.2635,124.7694
461,15.9699,23.8356, , ,195.2635,124.7916
463,16.0219,95.7639, , ,195.2635,124.8483
465,16.0739,-28.6026, , ,195.2635,124.1167
467,16.1259,-17.2588, , ,195.2635,123.9295
469,16.1779,-53.8438, , ,195.2635,123.5482
471,16.2299,105.9262, , ,195.2635,124.2360
473,16.2819,22.7694, , ,195.2635,123.9439
475,16.3339,56.0839, , ,195.2635,124.1212
477,16.3859,84.3794, , ,195.2635,124.2781
479,16.4379,143.3902, , ,195.2635,124.5581
481,16.4899,63.4403, , ,195.2635,124.2797
483,16.5419,94.8481, , ,195.2635,124.4488
485,16.5939,34.6875, , ,195.2635,124.2498
487,16.6459,-91.5683, , ,195.2635,123.7838
489,16.6979,-21.7824, , ,195.2635,124.0080
491,16.7499,58.2236, , ,195.2635,124.2730
493,16.8019,24.6638, , ,195.2635,124.0806
495,16.8539,-21.4347, , ,195.2635,123.8373
497,16.9059,86.1089, , ,195.2635,124.2667
499,16.9579,4.8226, , ,195.2635,123.9885
501,17.0099,3.0718, , ,195.2635,124.0308
503,17.0619,194.4653, , ,195.2635,124.8489
505,17.1139,180.4655, , ,195.2635,124.8418
507,17.1659,30.1547, , ,195.2635,124.2875
509,17.2179,-60.4016, , ,195.2635,123.9719
511,17.2699,-93.1153, , ,195.2635,123.8893
513,17.3219,-1.5774, , ,195.2635,124.3073
515,17.3739,-18.4885, , ,195.2635,124.2353
517,17.4259,64.9556, , ,195.2635,124.5135
519,17.4779,66.2438, , ,195.2635,124.4616
521,17.5299,0.2418, , ,195.2635,124.1389
523,17.5819,84.1486, , ,195.2635,124.4192
525,17.6339,-56.6712, , ,195.2635,123.7120
527,17.6859,-95.8441, , ,195.2635,123.4132
529,17.7379,-30.1038, , ,195.2635,123.5390
531,17.7899,-135.7210, , ,195.2635,122.9700
533,17.8419,34.3417, , ,195.2635,123.6892
535,17.8939,71.5346, , ,195.2635,124.0384
537,17.9459,-32.8288, , ,195.2635,123.8164
539,17.9979,-20.3511, , ,195.2635,124.0658
541,18.0499,20.3279, , ,195.2635,124.4280
543,18.1019,67.6948, , ,195.2635,124.6628
545,18.1539,29.5508, , ,195.2635,124.5543
547,18.2059,240.5449, , ,195.2635,125.4427
549,18.2579,629.3026, , ,195.2635,127.0266
551,18.3099,485.8114, , ,195.2635,126.5044
553,18.3619,218.3774, , ,195.2635,125.4872
555,18.4139,50.6525, , ,195.2635,124.8616
557,18.4659,98.4485, , ,195.2635,125.0973
559,18.5179,-19.8653, , ,195.2635,124.6681
561,18.5699,-58.5708, , ,195.2635,124.7232
563,18.6219,70.2860, , ,195.2635,125.4479
565,18.6739,-9.4224, , ,195.2635,125.3392
567,18.7259,224.0557, , ,195.2635,126.4746
569,18.7779,765.2042, , ,195.2635,128.6748
571,18.8299,1401.34, , ,195.2635,131.0776
573,18.8819,1437.74, , ,195.2635,131.1706
575,18.9339,549.5943, , ,195.2635,127.6934
577,18.9859,182.4352, , ,195.2635,126.2000
579,19.0379,8.7915, , ,195.2635,125.4623
581,19.0899,-60.4641, , ,195.2635,125.1381
583,19.1419,68.6133, , ,195.2635,125.6050
585,19.1939,-13.3366, , ,195.2635,125.2304
587,19.2459,-56.8210, , ,195.2635,125.1233
589,19.2979,-105.4937, , ,195.2635,125.1100
591,19.3499,113.3064, , ,195.2635,126.1612
593,19.4019,55.4519, , ,195.2635,126.1115
595,19.4539,18.8846, , ,195.2635,126.1463
597,19.5059,8.9977, , ,195.2635,126.2920
599,19.5579,-72.8902, , ,195.2635,126.1525
601,19.6099,-1.1176, , ,195.2635,126.6210
603,19.6619,28.2653, , ,195.2635,126.9210
605,19.7139,76.4786, , ,195.2635,127.2715
607,19.7659,-73.0561, , ,195.2635,126.8212
609,19.8179,-67.3712, , ,195.2635,126.9819
611,19.8699,75.8360, , ,195.2635,127.6821
613,19.9219,199.9756, , ,195.2635,128.3042
615,19.9739,215.6253, , ,195.2635,128.5019
617,20.0259,85.6314, , ,195.2635,128.1322
619,20.0779,-295.0109, , ,195.2635,126.7767
621,20.1299,-133.0721, , ,195.2635,127.5514
623,20.1819,41.3166, , ,195.2635,128.3558
625,20.2339,-40.4334, , ,195.2635,128.1454
627,20.2859,-159.5104, , ,195.2635,127.7886
629,20.3379,68.2583, , ,195.2635,128.7846
631,20.3899,473.8199, , ,195.2635,130.4562
633,20.4419,1113.26, , ,195.2635,132.9889
635,20.4939,900.1794, , ,195.2635,132.2903
637,20.5459,413.2813, , ,195.2635,130.5435
639,20.5979,63.9333, , ,195.2635,129.3060
641,20.6499,-19.6492, , ,195.2635,129.0629
643,20.7019,-96.0627, , ,195.2635,128.8200
645,20.7539,-139.5589, , ,195.2635,128.7046
647,20.8059,38.8516, , ,195.2635,129.4491
649,20.8579,249.1191, , ,195.2635,130.3116
651,20.9099,1061.69, , ,195.2635,133.3005
653,20.9619,2098.85, , ,195.2635,137.0457
655,21.0139,1928.12, , ,195.2635,136.3309
657,21.0659,790.2447, , ,195.2635,131.9984
659,21.1179,93.9700, , ,195.2635,129.2387
661,21.1699,-63.4639, , ,195.2635,128.5322
663,21.2219,-95.8432, , ,195.2635,128.3101
665,21.2739,-112.8004, , ,195.2635,128.1478
667,21.3259,4.4566, , ,195.2635,128.5086
669,21.3779,203.2296, , ,195.2635,129.2479
671,21.4299,514.2584, , ,195.2635,130.4140
673,21.4819,776.5421, , ,195.2635,131.3845
675,21.5339,404.4352, , ,195.2635,129.9290
677,21.5859,33.0394, , ,195.2635,128.3705
679,21.6379,63.7926, , ,195.2635,128.2795
681,21.6899,44.8218, , ,195.2635,127.9943
683,21.7419,-12.3853, , ,195.2635,127.5587
685,21.7939,32.6034, , ,195.2635,127.5230
687,21.8459,129.0176, , ,195.2635,127.6887
689,21.8979,93.6969, , ,195.2635,127.3380
691,21.9499,-132.0745, , ,195.2635,126.2343
693,22.0019,126.4820, , ,195.2635,127.0415
695,22.0539,-132.5346, , ,195.2635,125.9266
697,22.1059,27.4205, , ,195.2635,126.5922
699,22.1579,99.9106, , ,195.2635,126.9102
701,22.2099,208.5616, , ,195.2635,127.3693
703,22.2619,224.3837, , ,195.2635,127.4633
705,22.3139,-135.2636, , ,195.2635,126.0768
707,22.3659,461.8665, , ,195.2635,128.4546
709,22.4179,997.3463, , ,195.2635,130.5534
711,22.4699,1010.16, , ,195.2635,130.6335
713,22.5219,646.6517, , ,195.2635,129.1897
715,22.5739,20.5052, , ,195.2635,126.6195
717,22.6259,16.6623, , ,195.2635,126.4805
719,22.6779,25.8251, , ,195.2635,126.3929
721,22.7299,44.1846, , ,195.2635,126.3415
723,22.7819,110.8026, , ,195.2635,126.5558
725,22.8339,124.9612, , ,195.2635,126.5625
727,22.8859,79.0984, , ,195.2635,126.3320
729,22.9379,237.6135, , ,195.2635,126.9088
731,22.9899,155.9016, , ,195.2635,126.5373
733,23.0419,35.1661, , ,195.2635,126.0099
735,23.0939,-52.4117, , ,195.2635,125.6124
737,23.1459,-24.2725, , ,195.2635,125.6749
739,23.1979,30.8244, , ,195.2635,125.8444
741,23.2499,183.1962, , ,195.2635,126.2294
743,23.3019,596.4595, , ,195.2635,127.6393
745,23.3539,1599.59, , ,195.2635,131.2996
747,23.4059,1460.48, , ,195.2635,130.5571
749,23.4579,831.8730, , ,195.2635,127.9109
751,23.5099,192.3646, , ,195.2635,125.1653
753,23.5619,118.3418, , ,195.2635,124.6475
755,23.6139,-72.5108, , ,195.2635,123.6561
757,23.6659,0.5840, , ,195.2635,123.7279
759,23.7179,95.6397, , ,195.2635,124.0192
761,23.7699,148.2831, , ,195.2635,124.1391
763,23.8219,150.7261, , ,195.2635,124.0567
765,23.8739,34.7954, , ,195.2635,123.4959
767,23.9259,118.4189, , ,195.2635,123.7416
769,23.9779,53.3417, , ,195.2635,123.3856
771,24.0299,-114.0030, , ,195.2635,122.6123
773,24.0819,-91.5309, , ,195.2635,122.6106
775,24.1339,55.0007, , ,195.2635,123.1138
777,24.1859,-75.4175, , ,195.2635,122.4487
779,24.2379,-3.7768, , ,195.2635,122.6069
781,24.2899,-9.1524, , ,195.2635,122.4507
783,24.3419,31.0649, , ,195.2635,122.4806
785,24.3939,26.7575, , ,195.2635,122.4458
787,24.4459,-41.8374, , ,195.2635,122.2654
789,24.4979,71.7066, , ,195.2635,122.8284
791,24.5499,-43.9259, , ,195.2635,122.4566
793,24.6019,12.2184, , ,195.2635,122.7853
795,24.6539,137.0138, , ,195.2635,123.3465
797,24.7059,300.2156, , ,195.2635,124.0600
799,24.7579,68.8892, , ,195.2635,123.1783
801,24.8099,31.6931, , ,195.2635,123.0814
803,24.8619,-82.0680, , ,195.2635,122.5440
805,24.9139,-87.5608, , ,195.2635,122.3183
807,24.9659,-262.8854, , ,195.2635,121.3947
809,25.0179,7.3365, , ,195.2635,122.2993
811,25.0699,-27.2478, , ,195.2635,121.9539
813,25.1219,222.7926, , ,195.2635,122.8952
815,25.1739,248.5266, , ,195.2635,122.9204
817,25.2259,132.0698, , ,195.2635,122.3659
819,25.2779,-105.1330, , ,195.2635,121.3122
821,25.3299,92.9715, , ,195.2635,121.9789
823,25.3819,-103.7143, , ,195.2635,120.9543
825,25.4339,61.8983, , ,195.2635,121.4222
827,25.4859,-60.2033, , ,195.2635,120.7022
829,25.5379,79.7703, , ,195.2635,121.0651
831,25.5899,-2.6570, , ,195.2635,120.5078
833,25.6419,69.4962, , ,195.2635,120.5904
835,25.6939,-32.7960, , ,195.2635,119.9481
837,25.7459,-34.8201, , ,195.2635,119.7217
839,25.7979,25.8468, , ,195.2635,119.9466
841,25.8499,-46.9233, , ,195.2635,119.8043
843,25.9019,128.0576, , ,195.2635,120.6927
845,25.9539,113.8886, , ,195.2635,120.7941
847,26.0059,-32.6324, , ,195.2635,120.3469
849,26.0579,-17.2377, , ,195.2635,120.3462
851,26.1099,19.8148, , ,195.2635,120.4355
853,26.1619,-71.3977, , ,195.2635,119.9914
855,26.2139,68.3153, , ,195.2635,120.5076
857,26.2659,-67.0636, , ,195.2635,119.9863
859,26.3179,87.4739, , ,195.2635,120.7759
861,26.3699,195.4784, , ,195.2635,121.3687
863,26.4219,188.8907, , ,195.2635,121.4880
865,26.4739,-51.5969, , ,195.2635,120.6416
867,26.5259,-24.2385, , ,195.2635,120.7237
869,26.5779,-76.3933, , ,195.2635,120.4761
871,26.6299,-124.1926, , ,195.2635,120.2462
873,26.6819,-16.2882, , ,195.2635,120.6627
875,26.7339,380.7466, , ,195.2635,122.2660
877,26.7859,507.4510, , ,195.2635,122.7523
879,26.8379,531.6929, , ,195.2635,122.8202
881,26.8899,195.2446, , ,195.2635,121.4117
883,26.9419,-109.4556, , ,195.2635,120.1189
885,26.9939,33.6136, , ,195.2635,120.5195
887,27.0459,-47.1045, , ,195.2635,119.9898
889,27.0979,78.2074, , ,195.2635,120.3171
891,27.1499,336.4287, , ,195.2635,121.1931
893,27.2019,580.8225, , ,195.2635,122.0061
895,27.2539,334.1992, , ,195.2635,120.7982
897,27.3059,83.8892, , ,195.2635,119.5626
899,27.3579,109.4897, , ,195.2635,119.4745
901,27.4099,12.2200, , ,195.2635,118.8706
903,27.4619,-24.6221, , ,195.2635,118.6294
905,27.5139,-66.7189, , ,195.2635,118.3655
907,27.5659,101.9566, , ,195.2635,118.9900
909,27.6179,69.6571, , ,195.2635,118.7682
911,27.6699,-85.8501, , ,195.2635,118.0548
913,27.7219,-34.0979, , ,195.2635,118.2465
915,27.7739,17.1735, , ,195.2635,118.4359
917,27.8259,24.4897, , ,195.2635,118.4396
919,27.8779,81.6149, , ,195.2635,118.6533
921,27.9299,595.1333, , ,195.2635,120.6249
923,27.9819,834.3600, , ,195.2635,121.4405
925,28.0339,647.9123, , ,195.2635,120.4972
927,28.0859,196.5423, , ,195.2635,118.4332
929,28.1379,72.1013, , ,195.2635,117.7294
931,28.1899,-76.6213, , ,195.2635,116.9175
933,28.2419,-90.6981, , ,195.2635,116.6784
935,28.2939,29.6857, , ,195.2635,117.0148
937,28.3459,111.3919, , ,195.2635,117.1853
939,28.3979,185.1920, , ,195.2635,117.1712
941,28.4499,142.4303, , ,195.2635,116.6585
943,28.5019,82.5738, , ,195.2635,116.0700
945,28.5539,-43.7638, , ,195.2635,115.1902
947,28.6059,-18.9376, , ,195.2635,115.0978
949,28.6579,-88.9125, , ,195.2635,114.7276
951,28.7099,-83.3877, , ,195.2635,114.6858
953,28.7619,18.3120, , ,195.2635,115.0627
955,28.8139,13.0658, , ,195.2635,114.9742
957,28.8659,-61.9699, , ,195.2635,114.6687
959,28.9179,-46.1628, , ,195.2635,114.7589
961,28.9699,-64.4049, , ,195.2635,114.7007
963,29.0219,48.8319, , ,195.2635,115.2145
965,29.0739,-72.3157, , ,195.2635,114.6188
967,29.1259,210.0986, , ,195.2635,115.6868
969,29.1779,1.5878, , ,195.2635,114.6232
971,29.2299,52.0756, , ,195.2635,114.6844
973,29.2819,19.7012, , ,195.2635,114.3840
975,29.3339,51.9267, , ,195.2635,114.3714
977,29.3859,140.0037, , ,195.2635,114.6027
979,29.4379,665.9491, , ,195.2635,116.7245
981,29.4899,825.7236, , ,195.2635,117.2573
983,29.5419,592.4241, , ,195.2635,116.1071
985,29.5939,347.1745, , ,195.2635,114.8935
987,29.6459,137.1196, , ,195.2635,113.8215
989,29.6979,120.8177, , ,195.2635,113.5955
991,29.7499,-12.6641, , ,195.2635,112.8509
993,29.8019,-57.8250, , ,195.2635,112.3623
995,29.8539,64.8212, , ,195.2635,112.6190
997,29.9059,-67.0795, , ,195.2635,111.7419
999,29.9579,73.0642, , ,195.2635,112.0781
1001,30.0099,78.7122, , ,195.2635,111.9317
1003,30.0619,-171.1399, , ,195.2635,110.7559
1005,30.1139,158.0892, , ,195.2635,112.1788
1007,30.1659,130.6634, , ,195.2635,112.0030
1009,30.2179,22.0213, , ,195.2635,111.4631
1011,30.2699,-140.4606, , ,195.2635,110.4566
1013,30.3219,-31.9956, , ,195.2635,110.6717
1015,30.3739,-78.2357, , ,195.2635,110.1866
1017,30.4259,-59.2672, , ,195.2635,109.9963
1019,30.4779,21.8748, , ,195.2635,110.2335
1021,30.5299,213.5360, , ,195.2635,111.1135
1023,30.5819,222.2032, , ,195.2635,111.1665
1025,30.6339,56.5245, , ,195.2635,110.4328
1027,30.6859,56.8328, , ,195.2635,110.4483
1029,30.7379,-110.1722, , ,195.2635,109.5275
1031,30.7899,-27.0612, , ,195.2635,109.7444
1033,30.8419,39.7139, , ,195.2635,109.8865
1035,30.8939,-30.6418, , ,195.2635,109.4035
1037,30.9459,-3.1343, , ,195.2635,109.3068
1039,30.9979,-67.6298, , ,195.2635,108.7277
1041,31.0499,-79.6499, , ,195.2635,108.3878
1043,31.1019,-48.6706, , ,195.2635,108.2456
1045,31.1539,-28.7868, , ,195.2635,108.0519
1047,31.2059,112.4177, , ,195.2635,108.6011
1049,31.2579,201.2944, , ,195.2635,108.9075
1051,31.3099,103.0618, , ,195.2635,108.3531
1053,31.3619,115.5187, , ,195.2635,108.3080
1055,31.4139,-77.6336, , ,195.2635,107.2926
1057,31.4659,-6.7454, , ,195.2635,107.4861
1059,31.5179,-14.7187, , ,195.2635,107.3124
1061,31.5699,2.3851, , ,195.2635,107.2554
1063,31.6219,-23.7636, , ,195.2635,106.9964
1065,31.6739,97.0094, , ,195.2635,107.1868
1067,31.7259,142.2214, , ,195.2635,107.0244
1069,31.7779,168.7296, , ,195.2635,106.7742
1071,31.8299,-132.7927, , ,195.2635,104.9724
1073,31.8819,113.0187, , ,195.2635,105.9041
1075,31.9339,-27.4655, , ,195.2635,105.1501
1077,31.9859,284.4279, , ,195.2635,106.5353
1079,32.0379,24.3518, , ,195.2635,105.2189
1081,32.0899,20.4348, , ,195.2635,105.1115
1083,32.1419,-55.1539, , ,195.2635,104.7874
1085,32.1939,-2.1188, , ,195.2635,105.0761
1087,32.2459,32.5610, , ,195.2635,105.2769
1089,32.2979,15.8756, , ,195.2635,105.2335
1091,32.3499,-107.5454, , ,195.2635,104.6593
1093,32.4019,7.4262, , ,195.2635,105.1987
1095,32.4539,-119.5147, , ,195.2635,104.5851
1097,32.5059,32.6111, , ,195.2635,105.3014
1099,32.5579,-22.1606, , ,195.2635,105.0326
1101,32.6099,194.6471, , ,195.2635,105.7491
1103,32.6619,370.2313, , ,195.2635,106.2670
1105,32.7139,290.3898, , ,195.2635,105.5796
1107,32.7659,25.0971, , ,195.2635,103.9999
1109,32.8179,-16.1911, , ,195.2635,103.5462
1111,32.8699,139.6094, , ,195.2635,104.1038
1113,32.9219,67.8368, , ,195.2635,103.5656
1115,32.9739,251.1544, , ,195.2635,104.2552
1117,33.0259,174.6520, , ,195.2635,103.6950
1119,33.0779,-23.7074, , ,195.2635,102.5392
1121,33.1299,-105.8967, , ,195.2635,101.9417
1123,33.1819,101.2661, , ,195.2635,102.7583
1125,33.2339,55.8080, , ,195.2635,102.3416
1127,33.2859,-34.9373, , ,195.2635,101.7904
1129,33.3379,27.5221, , ,195.2635,102.0793
1131,33.3899,-97.9962, , ,195.2635,101.4451
1133,33.4419,-90.3009, , ,195.2635,101.4655
1135,33.4939,-62.7715, , ,195.2635,101.5836
1137,33.5459,53.1065, , ,195.2635,101.9891
1139,33.5979,-48.4819, , ,195.2635,101.3255
1141,33.6499,45.4143, , ,195.2635,101.6239
1143,33.7019,34.0447, , ,195.2635,101.4037
1145,33.7539,-54.1483, , ,195.2635,100.7647
1147,33.8059,62.0297, , ,195.2635,101.0991
1149,33.8579,21.0378, , ,195.2635,100.6547
1151,33.9099,23.3978, , ,195.2635,100.4244
1153,33.9619,224.3027, , ,195.2635,101.1796
1155,34.0139,262.6938, , ,195.2635,101.1288
1157,34.0659,171.8389, , ,195.2635,100.4366
1159,34.1179,27.1980, , ,195.2635,99.4696
1161,34.1699,78.9372, , ,195.2635,99.4850
1163,34.2219,-50.2621, , ,195.2635,98.6901
1165,34.2739,-22.8117, , ,195.2635,98.7886
1167,34.3259,-42.9208, , ,195.2635,98.6462
1169,34.3779,-2.0258, , ,195.2635,98.8128
1171,34.4299,13.7769, , ,195.2635,98.8523
1173,34.4819,-2.4700, , ,195.2635,98.5516
1175,34.5339,41.8370, , ,195.2635,98.5577
1177,34.5859,-56.6365, , ,195.2635,97.8368
1179,34.6379,80.1381, , ,195.2635,98.3143
1181,34.6899,-75.1703, , ,195.2635,97.4106
1183,34.7419,-7.8283, , ,195.2635,97.7557
1185,34.7939,21.4027, , ,195.2635,97.9051
1187,34.8459,172.5335, , ,195.2635,98.6739
1189,34.8979,5.0954, , ,195.2635,97.8218
1191,34.9499,89.2193, , ,195.2635,98.2508
1193,35.0019,73.1412, , ,195.2635,98.1689
1195,35.0539,56.6884, , ,195.2635,98.0851
1197,35.1059,-30.5920, , ,195.2635,97.6392
1199,35.1579,20.8441, , ,195.2635,97.8375
1201,35.2099,-13.8829, , ,195.2635,97.5301
1203,35.2619,86.6733, , ,195.2635,97.9150
1205,35.3139,47.8316, , ,195.2635,97.5867
1207,35.3659,-37.6081, , ,195.2635,97.0175
1209,35.4179,66.3209, , ,195.2635,97.4422
1211,35.4699,-87.9085, , ,195.2635,96.5372
1213,35.5219,131.7851, , ,195.2635,97.5591
1215,35.5739,70.0945, , ,195.2635,97.1327
1217,35.6259,97.0715, , ,195.2635,97.1617
1219,35.6779,78.6068, , ,195.2635,96.9567
1221,35.7299,-132.0398, , ,195.2635,95.7529
1223,35.7819,-4.7599, , ,195.2635,96.3046
1225,35.8339,-68.6729, , ,195.2635,95.8610
1227,35.8859,85.4873, , ,195.2635,96.4223
1229,35.9379,20.6118, , ,195.2635,95.8445
1231,35.9899,12.7237, , ,195.2635,95.5618
1233,36.0419,-24.3637, , ,195.2635,95.1249
1235,36.0939,69.1333, , ,195.2635,95.4138
1237,36.1459,1.8330, , ,195.2635,94.8991
1239,36.1979,90.1488, , ,195.2635,95.2023
1241,36.2499,-6.0665, , ,195.2635,94.5336
1243,36.3019,22.6790, , ,195.2635,94.5234
1245,36.3539,-51.1137, , ,195.2635,94.1582
1247,36.4059,4.7181, , ,195.2635,94.4801
1249,36.4579,-52.5560, , ,195.2635,94.2025
1251,36.5099,-22.6308, , ,195.2635,94.3871
1253,36.5619,38.0783, , ,195.2635,94.5966
1255,36.6139,-2.8466, , ,195.2635,94.1302
1257,36.6659,-48.7616, , ,195.2635,93.6347
1259,36.7179,-71.1699, , ,195.2635,93.2628
1261,36.7699,9.7509, , ,195.2635,93.4438
1263,36.8219,30.1803, , ,195.2635,93.4818
1265,36.8739,69.7927, , ,195.2635,93.6223
1267,36.9259,-13.3532, , ,195.2635,93.1056
1269,36.9779,8.4224, , ,195.2635,93.1509
1271,37.0299,33.1238, , ,195.2635,93.1821
1273,37.0819,76.1223, , ,195.2635,93.2816
1275,37.1339,31.4312, , ,195.2635,92.9103
1277,37.1859,-21.6003, , ,195.2635,92.4924
1279,37.2379,-20.1910, , ,195.2635,92.3678
1281,37.2899,62.5728, , ,195.2635,92.7758
1283,37.3419,93.2535, , ,195.2635,92.9021
1285,37.3939,183.8457, , ,195.2635,93.3498
1287,37.4459,129.9130, , ,195.2635,93.0216
1289,37.4979,45.1024, , ,195.2635,92.5256
1291,37.5499,45.4909, , ,195.2635,92.4887
1293,37.6019,105.0460, , ,195.2635,92.7712
1295,37.6539,-3.9919, , ,195.2635,92.1424
1297,37.7059,96.2345, , ,195.2635,92.6457
1299,37.7579,-6.1320, , ,195.2635,91.8077
1301,37.8099,95.1556, , ,195.2635,92.0745
1303,37.8619,45.9923, , ,195.2635,91.5223
1305,37.9139,-53.6151, , ,195.2635,90.6890
1307,37.9659,43.3060, , ,195.2635,91.0481
1309,38.0179,-75.5784, , ,195.2635,90.3314
1311,38.0699,18.7729, , ,195.2635,90.7909
1313,38.1219,-92.4088, , ,195.2635,90.1149
1315,38.1739,68.8666, , ,195.2635,90.9443
1317,38.2259,-57.4775, , ,195.2635,90.2051
1319,38.2779,39.3703, , ,195.2635,90.6987
1321,38.3299,28.7830, , ,195.2635,90.5987
1323,38.3819,17.9250, , ,195.2635,90.4970
1325,38.4339,-53.4178, , ,195.2635,90.0730
1327,38.4859,166.4271, , ,195.2635,91.2693
1329,38.5379,137.7724, , ,195.2635,91.0964
1331,38.5899,83.2203, , ,195.2635,90.7806
1333,38.6419,237.9470, , ,195.2635,91.6130
1335,38.6939,64.7546, , ,195.2635,90.6469
1337,38.7459,107.6893, , ,195.2635,90.8675
1339,38.7979,112.4798, , ,195.2635,90.8780
1341,38.8499,57.9182, , ,195.2635,90.5614
1343,38.9019,-79.9782, , ,195.2635,89.7232
1345,38.9539,41.8688, , ,195.2635,90.2692
1347,39.0059,-31.4766, , ,195.2635,89.7309
1349,39.0579,-16.0070, , ,195.2635,89.6858
1351,39.1099,-46.4754, , ,195.2635,89.3841
1353,39.1619,111.3347, , ,195.2635,90.3536
1355,39.2139,53.8001, , ,195.2635,90.1260
1357,39.2659,107.5345, , ,195.2635,90.5145
1359,39.3179,5.7436, , ,195.2635,90.0418
1361,39.3699,-0.9440, , ,195.2635,90.0748
1363,39.4219,19.0689, , ,195.2635,90.2349
1365,39.4739,25.7800, , ,195.2635,90.3210
1367,39.5259,165.5657, , ,195.2635,91.1401
1369,39.5779,-23.4356, , ,195.2635,90.1463
1371,39.6299,150.8305, , ,195.2635,91.1563
1373,39.6819,-2.5342, , ,195.2635,90.3601
1375,39.7339,20.1328, , ,195.2635,90.5343
1377,39.7859,52.7263, , ,195.2635,90.7629
1379,39.8379,43.5361, , ,195.2635,90.7610
1381,39.8899,-14.4981, , ,195.2635,90.4896
1383,39.9419,4.1283, , ,195.2635,90.6413
1384,39.9679,2.2111, , ,195.2635,90.6307