File: 2021/xrd/baseline_correction/pynmof.CSV
No.,Pos. [°2Th.],Iobs [cts],Icalc [cts],Iback [cts],CT [s],ESD
1,4.0099,0.0000, , ,195.2635,253.1514
3,4.0619,-1633.22, , ,195.2635,235.5034
5,4.1139,-1132.25, , ,195.2635,221.2967
7,4.1659,1134.55, , ,195.2635,210.3531
9,4.2179,3053.78, , ,195.2635,197.9320
11,4.2699,3672.88, , ,195.2635,190.2242
13,4.3219,2994.35, , ,195.2635,187.8177
15,4.3739,2483, , ,195.2635,185.8302
17,4.4259,1879.64, , ,195.2635,183.5709
19,4.4779,1593.16, , ,195.2635,182.1552
21,4.5299,1090.01, , ,195.2635,180.0646
23,4.5819,881.8094, , ,195.2635,178.7763
25,4.6339,697.5913, , ,195.2635,177.5461
27,4.6859,523.6881, , ,195.2635,176.3367
29,4.7379,284.5447, , ,195.2635,174.9325
31,4.7899,235.2350, , ,195.2635,174.0630
33,4.8419,133.8894, , ,195.2635,173.0390
35,4.8939,16.1738, , ,195.2635,171.9612
37,4.9459,222.2269, , ,195.2635,171.8214
39,4.9979,159.2406, , ,195.2635,170.8293
41,5.0499,77.2937, , ,195.2635,169.7755
43,5.1019,-105.4462, , ,195.2635,168.4162
45,5.1539,10.4398, , ,195.2635,167.9373
47,5.2059,-19.3464, , ,195.2635,167.1679
49,5.2579,243.9093, , ,195.2635,167.4194
51,5.3099,-22.5318, , ,195.2635,166.0834
53,5.3619,-24.2813, , ,195.2635,165.5380
55,5.4139,29.3392, , ,195.2635,165.1585
57,5.4659,-13.2521, , ,195.2635,164.4711
59,5.5179,-167.3951, , ,195.2635,163.4399
61,5.5699,69.3079, , ,195.2635,163.6011
63,5.6219,-70.9252, , ,195.2635,162.6071
65,5.6739,76.5461, , ,195.2635,162.4824
67,5.7259,-4.9153, , ,195.2635,161.6387
69,5.7779,-33.6557, , ,195.2635,160.9545
71,5.8299,24.5776, , ,195.2635,160.5384
73,5.8819,-75.3079, , ,195.2635,159.6267
75,5.9339,-63.2576, , ,195.2635,159.0565
77,5.9859,76.0326, , ,195.2635,158.8851
79,6.0379,72.7301, , ,195.2635,158.2637
81,6.0899,80.1619, , ,195.2635,157.6739
83,6.1419,-86.7894, , ,195.2635,156.5478
85,6.1939,-24.9978, , ,195.2635,156.1698
87,6.2459,-35.3426, , ,195.2635,155.5592
89,6.2979,82.7775, , ,195.2635,155.3602
91,6.3499,4.6786, , ,195.2635,154.5273
93,6.4019,91.3052, , ,195.2635,154.4347
95,6.4539,136.3610, , ,195.2635,154.2074
97,6.5059,-153.5742, , ,195.2635,152.8881
99,6.5579,281.7202, , ,195.2635,153.9313
101,6.6099,-77.3775, , ,195.2635,152.3828
103,6.6619,-226.4100, , ,195.2635,151.5132
105,6.7139,-80.9594, , ,195.2635,151.6129
107,6.7659,44.1921, , ,195.2635,151.6457
109,6.8179,313.6779, , ,195.2635,152.1535
111,6.8699,116.1388, , ,195.2635,151.0380
113,6.9219,122.8015, , ,195.2635,150.5937
115,6.9739,-61.3549, , ,195.2635,149.5114
117,7.0259,-87.5957, , ,195.2635,148.9521
119,7.0779,62.7752, , ,195.2635,149.0835
121,7.1299,-29.8210, , ,195.2635,148.4975
123,7.1819,50.9319, , ,195.2635,148.4941
125,7.2339,-4.8681, , ,195.2635,148.0301
127,7.2859,102.4410, , ,195.2635,148.1163
129,7.3379,34.7932, , ,195.2635,147.6110
131,7.3899,14.0444, , ,195.2635,147.2633
133,7.4419,70.9476, , ,195.2635,147.1789
135,7.4939,-9.7307, , ,195.2635,146.6259
137,7.5459,25.5139, , ,195.2635,146.4747
139,7.5979,34.9280, , ,195.2635,146.2427
141,7.6499,67.0863, , ,195.2635,146.0882
143,7.7019,48.6786, , ,195.2635,145.7601
145,7.7539,-1.6260, , ,195.2635,145.3216
147,7.8059,-38.6991, , ,195.2635,145.3286
149,7.8579,-92.3287, , ,195.2635,145.2787
151,7.9099,-183.6345, , ,195.2635,145.0989
153,7.9619,29.3306, , ,195.2635,145.9650
155,8.0139,8.7771, , ,195.2635,146.0321
157,8.0659,406.4740, , ,195.2635,147.5271
159,8.1179,849.6894, , ,195.2635,149.1598
161,8.1699,1969.07, , ,195.2635,153.0007
163,8.2219,3578.08, , ,195.2635,158.3016
165,8.2739,5004, , ,195.2635,162.7793
167,8.3259,3488.98, , ,195.2635,158.0946
169,8.3779,1440.68, , ,195.2635,151.5170
171,8.4299,402.1621, , ,195.2635,148.0901
173,8.4819,196.0641, , ,195.2635,147.3768
175,8.5339,102.0084, , ,195.2635,146.9857
177,8.5859,468.4597, , ,195.2635,148.1558
179,8.6379,1149.95, , ,195.2635,150.3681
181,8.6899,2193.5, , ,195.2635,153.7303
183,8.7419,4079.04, , ,195.2635,159.5763
185,8.7939,8012.25, , ,195.2635,171.3004
187,8.8459,15394.1, , ,195.2635,191.4985
189,8.8979,26145.2, , ,195.2635,217.6439
191,8.9499,35748.2, , ,195.2635,238.5747
193,9.0019,32600.7, , ,195.2635,231.7681
195,9.0539,20191.8, , ,195.2635,203.1097
197,9.1059,9833.28, , ,195.2635,175.6163
199,9.1579,5292.57, , ,195.2635,162.0075
201,9.2099,3301.84, , ,195.2635,155.4634
203,9.2619,2441.51, , ,195.2635,152.3867
205,9.3139,2419.19, , ,195.2635,152.0281
207,9.3659,2952.63, , ,195.2635,153.4899
209,9.4179,3586.65, , ,195.2635,155.2092
211,9.4699,3500.45, , ,195.2635,154.5445
213,9.5219,2861.51, , ,195.2635,152.0703
215,9.5739,1787.42, , ,195.2635,148.0932
217,9.6259,868.2690, , ,195.2635,144.5433
219,9.6779,355.6135, , ,195.2635,142.2361
221,9.7299,-19.7398, , ,195.2635,140.3807
223,9.7819,-21.3955, , ,195.2635,139.8431
225,9.8339,-51.5471, , ,195.2635,139.2011
227,9.8859,115.9878, , ,195.2635,139.3136
229,9.9379,162.2915, , ,195.2635,139.0364
231,9.9899,356.6156, , ,195.2635,139.2911
233,10.0419,920.4226, , ,195.2635,140.8630
235,10.0939,1702.74, , ,195.2635,143.1826
237,10.1459,2783.93, , ,195.2635,146.4889
239,10.1979,3849.72, , ,195.2635,149.6708
241,10.2499,3881, , ,195.2635,149.3626
243,10.3019,2883.59, , ,195.2635,145.5621
245,10.3539,1516.62, , ,195.2635,140.3075
247,10.4059,554.7916, , ,195.2635,136.2992
249,10.4579,178.6844, , ,195.2635,134.3669
251,10.5099,80.5966, , ,195.2635,133.4522
253,10.5619,-21.5204, , ,195.2635,132.5160
255,10.6139,-58.1041, , ,195.2635,132.0013
257,10.6659,-164.6289, , ,195.2635,131.2184
259,10.7179,-22.5670, , ,195.2635,131.3802
261,10.7699,34.3918, , ,195.2635,131.2180
263,10.8219,-27.1247, , ,195.2635,130.8255
265,10.8739,29.8897, , ,195.2635,131.1077
267,10.9259,53.2441, , ,195.2635,131.2611
269,10.9779,-105.4976, , ,195.2635,130.7196
271,11.0299,-40.9043, , ,195.2635,131.0309
273,11.0819,169.9982, , ,195.2635,131.9099
275,11.1339,581.7629, , ,195.2635,133.5373
277,11.1859,1452.28, , ,195.2635,136.8318
279,11.2379,3143.77, , ,195.2635,142.9498
281,11.2899,4595.68, , ,195.2635,148.0094
283,11.3419,4499.43, , ,195.2635,147.7524
285,11.3939,2497.44, , ,195.2635,140.8865
287,11.4459,791.4418, , ,195.2635,134.7710
289,11.4979,-2.2768, , ,195.2635,131.8701
291,11.5499,-116.0805, , ,195.2635,131.4125
293,11.6019,87.1418, , ,195.2635,132.1583
295,11.6539,-109.5452, , ,195.2635,131.3867
297,11.7059,-35.1550, , ,195.2635,131.6441
299,11.7579,31.2374, , ,195.2635,131.9428
301,11.8099,254.5987, , ,195.2635,132.9044
303,11.8619,330.8341, , ,195.2635,133.3085
305,11.9139,1030.78, , ,195.2635,136.0236
307,11.9659,2308.71, , ,195.2635,140.7540
309,12.0179,4529.89, , ,195.2635,148.4506
311,12.0699,8046.66, , ,195.2635,159.8721
313,12.1219,9570.34, , ,195.2635,164.5828
315,12.1739,9734.92, , ,195.2635,165.0963
317,12.2259,10162.3, , ,195.2635,166.3571
319,12.2779,12121.7, , ,195.2635,172.0764
321,12.3299,15945.4, , ,195.2635,182.7846
323,12.3819,19105, , ,195.2635,191.1705
325,12.4339,23605.4, , ,195.2635,202.5409
327,12.4859,33622.7, , ,195.2635,225.8027
329,12.5379,51757.8, , ,195.2635,262.8094
331,12.5899,70452.5, , ,195.2635,296.1592
333,12.6419,72149.5, , ,195.2635,298.9215
335,12.6939,50601, , ,195.2635,260.2928
337,12.7459,25852.5, , ,195.2635,207.2455
339,12.7979,12596.1, , ,195.2635,172.1659
341,12.8499,6567.27, , ,195.2635,153.4896
343,12.9019,3869.83, , ,195.2635,144.2513
345,12.9539,2185.62, , ,195.2635,137.9912
347,13.0059,1424.76, , ,195.2635,134.9002
349,13.0579,1110, , ,195.2635,133.4191
351,13.1099,657.1541, , ,195.2635,131.3969
353,13.1619,628.0114, , ,195.2635,130.9128
355,13.2139,926.0769, , ,195.2635,131.6174
357,13.2659,1620.11, , ,195.2635,133.8062
359,13.3179,2605.34, , ,195.2635,137.0264
361,13.3699,2783.85, , ,195.2635,137.2650
363,13.4219,2384.45, , ,195.2635,135.2725
365,13.4739,1265.87, , ,195.2635,130.5238
367,13.5259,319.2682, , ,195.2635,126.2785
369,13.5779,201.1046, , ,195.2635,125.2377
371,13.6299,14.7413, , ,195.2635,123.8571
373,13.6819,43.1497, , ,195.2635,123.2782
375,13.7339,-49.7639, , ,195.2635,122.2013
377,13.7859,13.1721, , ,195.2635,121.7564
379,13.8379,-45.2400, , ,195.2635,120.8088
381,13.8899,29.1278, , ,195.2635,121.0409
383,13.9419,37.9365, , ,195.2635,121.0020
385,13.9939,-76.0212, , ,195.2635,120.4546
387,14.0459,76.8409, , ,195.2635,121.0122
389,14.0979,-9.4883, , ,195.2635,120.5610
391,14.1499,-201.7760, , ,195.2635,119.6476
393,14.2019,2.1736, , ,195.2635,120.3844
395,14.2539,-34.6979, , ,195.2635,120.1183
397,14.3059,4.5866, , ,195.2635,120.1690
399,14.3579,32.8945, , ,195.2635,120.1910
401,14.4099,75.8721, , ,195.2635,120.2739
403,14.4619,51.5143, , ,195.2635,120.0768
405,14.5139,434.5857, , ,195.2635,121.5667
407,14.5659,985.9585, , ,195.2635,123.6628
409,14.6179,1772.2, , ,195.2635,126.5981
411,14.6699,3528.71, , ,195.2635,133.1612
413,14.7219,5536.54, , ,195.2635,140.3142
415,14.7739,6017.93, , ,195.2635,141.8372
417,14.8259,4449.31, , ,195.2635,136.0056
419,14.8779,2382.59, , ,195.2635,127.9810
421,14.9299,1153.15, , ,195.2635,122.8740
423,14.9819,420.1095, , ,195.2635,119.6383
425,15.0339,272.7629, , ,195.2635,118.7434
427,15.0859,150.7434, , ,195.2635,117.8883
429,15.1379,164.0475, , ,195.2635,117.6038
431,15.1899,-179.8518, , ,195.2635,115.7862
433,15.2419,30.8635, , ,195.2635,116.3480
435,15.2939,122.1180, , ,195.2635,116.7963
437,15.3459,163.6405, , ,195.2635,117.0305
439,15.3979,231.6731, , ,195.2635,117.3773
441,15.4499,523.3132, , ,195.2635,118.6689
443,15.5019,979.0443, , ,195.2635,120.5622
445,15.5539,2053.75, , ,195.2635,124.8643
447,15.6059,2903.9, , ,195.2635,128.1499
449,15.6579,2938.9, , ,195.2635,128.2130
451,15.7099,1929.21, , ,195.2635,124.1371
453,15.7619,990.4360, , ,195.2635,120.2181
455,15.8139,445.3058, , ,195.2635,117.8492
457,15.8659,121.1694, , ,195.2635,116.3849
459,15.9179,39.4981, , ,195.2635,115.9522
461,15.9699,24.5554, , ,195.2635,115.7502
463,16.0219,-21.0629, , ,195.2635,115.3586
465,16.0739,-12.1876, , ,195.2635,115.2024
467,16.1259,-32.2394, , ,195.2635,114.9202
469,16.1779,-35.1971, , ,195.2635,114.7118
471,16.2299,37.6073, , ,195.2635,114.9611
473,16.2819,-103.0664, , ,195.2635,114.2796
475,16.3339,-21.5452, , ,195.2635,114.5678
477,16.3859,-20.9264, , ,195.2635,114.5026
479,16.4379,66.2714, , ,195.2635,114.8039
481,16.4899,129.7383, , ,195.2635,114.9902
483,16.5419,207.8413, , ,195.2635,115.2396
485,16.5939,292.8500, , ,195.2635,115.5185
487,16.6459,244.6156, , ,195.2635,115.2199
489,16.6979,193.3454, , ,195.2635,114.9073
491,16.7499,-107.7387, , ,195.2635,113.4986
493,16.8019,88.7453, , ,195.2635,114.2705
495,16.8539,40.1394, , ,195.2635,113.9670
497,16.9059,80.5972, , ,195.2635,114.0670
499,16.9579,56.7239, , ,195.2635,113.8982
501,17.0099,230.2562, , ,195.2635,114.5938
503,17.0619,187.8828, , ,195.2635,114.3448
505,17.1139,342.8085, , ,195.2635,114.9568
507,17.1659,422.4265, , ,195.2635,115.0951
509,17.2179,696.2029, , ,195.2635,116.0726
511,17.2699,719.0914, , ,195.2635,115.9652
513,17.3219,360.6594, , ,195.2635,114.2002
515,17.3739,290.3435, , ,195.2635,113.6819
517,17.4259,315.2147, , ,195.2635,113.5809
519,17.4779,120.2136, , ,195.2635,112.5070
521,17.5299,2.6633, , ,195.2635,111.7697
523,17.5819,117.8786, , ,195.2635,112.0709
525,17.6339,-63.5238, , ,195.2635,111.2662
527,17.6859,2.6308, , ,195.2635,111.5707
529,17.7379,70.2568, , ,195.2635,111.8809
531,17.7899,156.4332, , ,195.2635,112.2729
533,17.8419,407.4313, , ,195.2635,113.3927
535,17.8939,1012.77, , ,195.2635,116.0385
537,17.9459,1689.15, , ,195.2635,118.9244
539,17.9979,2074.59, , ,195.2635,120.5411
541,18.0499,1988.85, , ,195.2635,120.1919
543,18.1019,1092.36, , ,195.2635,116.2966
545,18.1539,618.8238, , ,195.2635,114.1343
547,18.2059,194.5372, , ,195.2635,112.1500
549,18.2579,0.3529, , ,195.2635,111.1698
551,18.3099,49.2599, , ,195.2635,111.2062
553,18.3619,-122.0517, , ,195.2635,110.1754
555,18.4139,-165.4407, , ,195.2635,109.7194
557,18.4659,-101.8222, , ,195.2635,109.7500
559,18.5179,31.4118, , ,195.2635,110.0973
561,18.5699,26.3514, , ,195.2635,109.9935
563,18.6219,8.0811, , ,195.2635,109.8295
565,18.6739,-126.9846, , ,195.2635,109.1315
567,18.7259,-14.7086, , ,195.2635,109.5636
569,18.7779,3.4996, , ,195.2635,109.6061
571,18.8299,88.0319, , ,195.2635,109.9911
573,18.8819,30.8225, , ,195.2635,109.7307
575,18.9339,97.5287, , ,195.2635,110.0342
577,18.9859,275.3837, , ,195.2635,110.8394
579,19.0379,344.8780, , ,195.2635,111.1525
581,19.0899,440.8207, , ,195.2635,111.5832
583,19.1419,146.1469, , ,195.2635,110.2549
585,19.1939,-9.6893, , ,195.2635,109.5459
587,19.2459,74.5047, , ,195.2635,109.8891
589,19.2979,-85.4587, , ,195.2635,109.0774
591,19.3499,-84.6091, , ,195.2635,108.9998
593,19.4019,55.4098, , ,195.2635,109.5591
595,19.4539,-103.3561, , ,195.2635,108.7504
597,19.5059,102.2712, , ,195.2635,109.6755
599,19.5579,-55.4915, , ,195.2635,108.9376
601,19.6099,32.7437, , ,195.2635,109.3256
603,19.6619,21.5908, , ,195.2635,109.2583
605,19.7139,-3.5337, , ,195.2635,109.0668
607,19.7659,-94.2799, , ,195.2635,108.5129
609,19.8179,55.1511, , ,195.2635,109.0629
611,19.8699,-82.0156, , ,195.2635,108.2948
613,19.9219,-8.6682, , ,195.2635,108.4958
615,19.9739,145.2433, , ,195.2635,109.3609
617,20.0259,86.4035, , ,195.2635,109.2498
619,20.0779,110.0684, , ,195.2635,109.5159
621,20.1299,268.8148, , ,195.2635,110.3949
623,20.1819,344.3426, , ,195.2635,110.8924
625,20.2339,354.9816, , ,195.2635,111.0960
627,20.2859,187.6862, , ,195.2635,110.4969
629,20.3379,231.5390, , ,195.2635,110.8512
631,20.3899,145.5941, , ,195.2635,110.6191
633,20.4419,69.1265, , ,195.2635,110.2820
635,20.4939,-91.8181, , ,195.2635,109.5590
637,20.5459,-19.8430, , ,195.2635,109.8961
639,20.5979,-69.8306, , ,195.2635,109.6776
641,20.6499,101.6813, , ,195.2635,110.5206
643,20.7019,89.3352, , ,195.2635,110.5833
645,20.7539,428.1129, , ,195.2635,112.2215
647,20.8059,1191.86, , ,195.2635,115.6877
649,20.8579,596.9168, , ,195.2635,113.2030
651,20.9099,108.1126, , ,195.2635,111.1411
653,20.9619,86.1472, , ,195.2635,111.1602
655,21.0139,-2.8137, , ,195.2635,110.8776
657,21.0659,-71.7939, , ,195.2635,110.6847
659,21.1179,60.2205, , ,195.2635,111.4818
661,21.1699,279.3755, , ,195.2635,112.7443
663,21.2219,430.2774, , ,195.2635,113.6931
665,21.2739,1171.94, , ,195.2635,117.1825
667,21.3259,1959.09, , ,195.2635,120.7594
669,21.3779,2558.25, , ,195.2635,123.3313
671,21.4299,2322.84, , ,195.2635,122.4901
673,21.4819,1430.17, , ,195.2635,118.9108
675,21.5339,798.5609, , ,195.2635,116.3476
677,21.5859,440.9261, , ,195.2635,114.8628
679,21.6379,357.5017, , ,195.2635,114.4991
681,21.6899,663.8570, , ,195.2635,115.8293
683,21.7419,797.8619, , ,195.2635,116.4063
685,21.7939,1144.15, , ,195.2635,117.8845
687,21.8459,1552.22, , ,195.2635,119.6028
689,21.8979,1835.15, , ,195.2635,120.7798
691,21.9499,1339.67, , ,195.2635,118.7110
693,22.0019,835.5113, , ,195.2635,116.5683
695,22.0539,285.6887, , ,195.2635,114.1230
697,22.1059,-125.9395, , ,195.2635,112.1777
699,22.1579,-65.1613, , ,195.2635,112.3211
701,22.2099,-61.7943, , ,195.2635,112.2087
703,22.2619,69.3836, , ,195.2635,112.6649
705,22.3139,-53.0614, , ,195.2635,112.0151
707,22.3659,-122.4275, , ,195.2635,111.5996
709,22.4179,-23.5470, , ,195.2635,111.9365
711,22.4699,-60.5345, , ,195.2635,111.6658
713,22.5219,67.4579, , ,195.2635,112.2953
715,22.5739,23.3586, , ,195.2635,112.3196
717,22.6259,203.6576, , ,195.2635,113.3382
719,22.6779,322.9331, , ,195.2635,114.0806
721,22.7299,380.4715, , ,195.2635,114.5490
723,22.7819,427.3490, , ,195.2635,114.9691
725,22.8339,234.2263, , ,195.2635,114.3431
727,22.8859,281.4413, , ,195.2635,114.7654
729,22.9379,14.0370, , ,195.2635,113.8124
731,22.9899,16.9458, , ,195.2635,114.0275
733,23.0419,-155.1109, , ,195.2635,113.4588
735,23.0939,25.2601, , ,195.2635,114.4374
737,23.1459,71.5285, , ,195.2635,114.8254
739,23.1979,152.4931, , ,195.2635,115.3624
741,23.2499,-42.2809, , ,195.2635,114.7013
743,23.3019,-115.2291, , ,195.2635,114.5692
745,23.3539,-104.2533, , ,195.2635,114.8031
747,23.4059,-45.2154, , ,195.2635,115.2452
749,23.4579,12.5785, , ,195.2635,116.0071
751,23.5099,114.6985, , ,195.2635,117.2770
753,23.5619,224.9160, , ,195.2635,118.5675
755,23.6139,95.0508, , ,195.2635,118.8382
757,23.6659,88.6488, , ,195.2635,119.6255
759,23.7179,94.5140, , ,195.2635,120.3563
761,23.7699,353.2482, , ,195.2635,122.1225
763,23.8219,1167.59, , ,195.2635,126.0864
765,23.8739,1705.47, , ,195.2635,128.8611
767,23.9259,1855.03, , ,195.2635,130.0435
769,23.9779,1882.99, , ,195.2635,130.7014
771,24.0299,2530.63, , ,195.2635,133.6940
773,24.0819,2618.81, , ,195.2635,134.5580
775,24.1339,1947.34, , ,195.2635,132.5820
777,24.1859,1060.48, , ,195.2635,129.6395
779,24.2379,56.9832, , ,195.2635,126.1672
781,24.2899,-10.7151, , ,195.2635,126.3556
783,24.3419,61.2073, , ,195.2635,127.0942
785,24.3939,283.5380, , ,195.2635,128.3578
787,24.4459,1139.15, , ,195.2635,131.9736
789,24.4979,2186.06, , ,195.2635,136.1970
791,24.5499,2814.2, , ,195.2635,138.7929
793,24.6019,3402.8, , ,195.2635,141.2012
795,24.6539,3852.43, , ,195.2635,142.9806
797,24.7059,4858.65, , ,195.2635,146.6483
799,24.7579,4991.06, , ,195.2635,147.2895
801,24.8099,4657.1, , ,195.2635,146.3430
803,24.8619,4259.87, , ,195.2635,145.1727
805,24.9139,4489.33, , ,195.2635,146.1527
807,24.9659,4951.46, , ,195.2635,147.9149
809,25.0179,6097.64, , ,195.2635,151.9245
811,25.0699,8170.66, , ,195.2635,158.7769
813,25.1219,12031.4, , ,195.2635,170.5792
815,25.1739,16594.4, , ,195.2635,183.5394
817,25.2259,19089.8, , ,195.2635,190.2854
819,25.2779,17744.7, , ,195.2635,186.7882
821,25.3299,16225.1, , ,195.2635,182.7069
823,25.3819,15799.1, , ,195.2635,181.5283
825,25.4339,14037.2, , ,195.2635,176.5995
827,25.4859,10338.8, , ,195.2635,165.7882
829,25.5379,5821.72, , ,195.2635,151.5431
831,25.5899,2657.7, , ,195.2635,140.6039
833,25.6419,1001.52, , ,195.2635,134.4672
835,25.6939,201.5824, , ,195.2635,131.3379
837,25.7459,-48.8567, , ,195.2635,130.2589
839,25.7979,269.3877, , ,195.2635,131.3037
841,25.8499,348.3096, , ,195.2635,131.3831
843,25.9019,326.3992, , ,195.2635,131.0783
845,25.9539,207.1961, , ,195.2635,130.4004
847,26.0059,84.5225, , ,195.2635,129.7055
849,26.0579,-132.9974, , ,195.2635,128.5423
851,26.1099,-309.0815, , ,195.2635,127.5309
853,26.1619,-290.0768, , ,195.2635,127.2802
855,26.2139,-191.1776, , ,195.2635,127.3431
857,26.2659,214.5136, , ,195.2635,128.9223
859,26.3179,1031.72, , ,195.2635,132.3595
861,26.3699,2339.24, , ,195.2635,137.5044
863,26.4219,3611.37, , ,195.2635,142.3393
865,26.4739,4144.47, , ,195.2635,144.4799
867,26.5259,3320.97, , ,195.2635,141.7849
869,26.5779,2078.74, , ,195.2635,137.5237
871,26.6299,859.5463, , ,195.2635,133.2126
873,26.6819,391.9484, , ,195.2635,131.6435
875,26.7339,284.3501, , ,195.2635,131.3737
877,26.7859,566.0672, , ,195.2635,132.5218
879,26.8379,483.4758, , ,195.2635,132.2902
881,26.8899,606.5195, , ,195.2635,132.8345
883,26.9419,492.0937, , ,195.2635,132.4833
885,26.9939,298.2457, , ,195.2635,131.7098
887,27.0459,311.5531, , ,195.2635,131.7205
889,27.0979,616.2439, , ,195.2635,132.8325
891,27.1499,879.2714, , ,195.2635,133.7796
893,27.2019,1565.59, , ,195.2635,136.2241
895,27.2539,2712.26, , ,195.2635,140.2196
897,27.3059,4326.08, , ,195.2635,145.7162
899,27.3579,7620.26, , ,195.2635,156.4777
901,27.4099,13793.9, , ,195.2635,174.9764
903,27.4619,24425.5, , ,195.2635,202.9932
905,27.5139,39792.6, , ,195.2635,237.7629
907,27.5659,55015.9, , ,195.2635,267.7917
909,27.6179,59490, , ,195.2635,275.9426
911,27.6699,53490.2, , ,195.2635,264.7388
913,27.7219,38333.9, , ,195.2635,234.2147
915,27.7739,23958.8, , ,195.2635,201.0165
917,27.8259,14348, , ,195.2635,175.2800
919,27.8779,9689.48, , ,195.2635,161.2167
921,27.9299,7359.22, , ,195.2635,153.4773
923,27.9819,5312.92, , ,195.2635,146.3002
925,28.0339,3998.19, , ,195.2635,141.3639
927,28.0859,3059.54, , ,195.2635,137.6221
929,28.1379,2976.26, , ,195.2635,136.8801
931,28.1899,2551.52, , ,195.2635,134.8182
933,28.2419,1761.89, , ,195.2635,131.3423
935,28.2939,1263.77, , ,195.2635,128.9077
937,28.3459,689.1312, , ,195.2635,126.1232
939,28.3979,352.0803, , ,195.2635,124.1246
941,28.4499,445.5756, , ,195.2635,123.8439
943,28.5019,190.2470, , ,195.2635,122.1429
945,28.5539,-24.3247, , ,195.2635,120.5870
947,28.6059,8.6439, , ,195.2635,120.2842
949,28.6579,278.7544, , ,195.2635,121.2011
951,28.7099,665.2545, , ,195.2635,122.5867
953,28.7619,1193.29, , ,195.2635,124.5264
955,28.8139,2308.2, , ,195.2635,128.7363
957,28.8659,4010.39, , ,195.2635,134.8736
959,28.9179,5340.15, , ,195.2635,139.4142
961,28.9699,5558.27, , ,195.2635,139.8932
963,29.0219,4604.61, , ,195.2635,136.1327
965,29.0739,2989.05, , ,195.2635,129.7390
967,29.1259,1790.49, , ,195.2635,124.6969
969,29.1779,813.8491, , ,195.2635,120.3675
971,29.2299,331.1364, , ,195.2635,117.9885
973,29.2819,42.2527, , ,195.2635,116.3962
975,29.3339,-97.6489, , ,195.2635,115.2745
977,29.3859,-159.7545, , ,195.2635,114.4821
979,29.4379,-27.4748, , ,195.2635,114.5359
981,29.4899,-62.9168, , ,195.2635,113.8555
983,29.5419,185.9758, , ,195.2635,114.4896
985,29.5939,117.0510, , ,195.2635,113.8012
987,29.6459,204.1892, , ,195.2635,113.7965
989,29.6979,158.9600, , ,195.2635,113.2086
991,29.7499,391.9307, , ,195.2635,113.8461
993,29.8019,414.8369, , ,195.2635,113.5589
995,29.8539,199.7901, , ,195.2635,112.2156
997,29.9059,113.3724, , ,195.2635,111.4348
999,29.9579,-36.9381, , ,195.2635,110.3593
1001,30.0099,1.9000, , ,195.2635,110.1406
1003,30.0619,-127.4578, , ,195.2635,109.1591
1005,30.1139,-53.2365, , ,195.2635,109.1056
1007,30.1659,68.6396, , ,195.2635,109.2704
1009,30.2179,148.3481, , ,195.2635,109.2422
1011,30.2699,255.4430, , ,195.2635,109.3392
1013,30.3219,136.3864, , ,195.2635,108.3979
1015,30.3739,122.6969, , ,195.2635,107.9376
1017,30.4259,169.4763, , ,195.2635,107.7563
1019,30.4779,173.4761, , ,195.2635,107.2978
1021,30.5299,157.5228, , ,195.2635,106.6655
1023,30.5819,14.8147, , ,195.2635,105.4300
1025,30.6339,-78.7887, , ,195.2635,104.4153
1027,30.6859,69.7668, , ,195.2635,104.5551
1029,30.7379,-26.0020, , ,195.2635,103.8118
1031,30.7899,11.2082, , ,195.2635,103.7062
1033,30.8419,-115.9989, , ,195.2635,102.8040
1035,30.8939,-59.3477, , ,195.2635,102.7921
1037,30.9459,87.9825, , ,195.2635,103.3595
1039,30.9979,144.6956, , ,195.2635,103.6257
1041,31.0499,153.4356, , ,195.2635,103.6601
1043,31.1019,33.9170, , ,195.2635,103.0741
1045,31.1539,66.6911, , ,195.2635,103.2252
1047,31.2059,70.8179, , ,195.2635,103.2374
1049,31.2579,95.9271, , ,195.2635,103.3511
1051,31.3099,199.6009, , ,195.2635,103.8437
1053,31.3619,299.1903, , ,195.2635,104.3144
1055,31.4139,402.5559, , ,195.2635,104.7410
1057,31.4659,519.7640, , ,195.2635,105.1718
1059,31.5179,553.1993, , ,195.2635,105.2034
1061,31.5699,534.6349, , ,195.2635,104.9877
1063,31.6219,450.8134, , ,195.2635,104.4596
1065,31.6739,415.3787, , ,195.2635,104.0606
1067,31.7259,96.9795, , ,195.2635,102.2860
1069,31.7779,39.5769, , ,195.2635,101.7705
1071,31.8299,-58.0867, , ,195.2635,101.0535
1073,31.8819,35.6498, , ,195.2635,101.1988
1075,31.9339,-23.2262, , ,195.2635,100.5059
1077,31.9859,23.6194, , ,195.2635,100.3364
1079,32.0379,3.6029, , ,195.2635,99.8323
1081,32.0899,2.6651, , ,195.2635,99.4217
1083,32.1419,-46.4882, , ,195.2635,98.6507
1085,32.1939,-58.3100, , ,195.2635,98.0642
1087,32.2459,-36.0846, , ,195.2635,97.6486
1089,32.2979,-57.5694, , ,195.2635,97.0062
1091,32.3499,-47.7532, , ,195.2635,96.6622
1093,32.4019,-32.4070, , ,195.2635,96.4862
1095,32.4539,61.1802, , ,195.2635,96.7153
1097,32.5059,-38.6443, , ,195.2635,95.9411
1099,32.5579,81.6029, , ,195.2635,96.3099
1101,32.6099,9.6268, , ,195.2635,95.9946
1103,32.6619,125.1631, , ,195.2635,96.6531
1105,32.7139,27.0674, , ,195.2635,96.2033
1107,32.7659,11.9563, , ,195.2635,96.1836
1109,32.8179,95.6364, , ,195.2635,96.6248
1111,32.8699,200.4601, , ,195.2635,97.1217
1113,32.9219,97.9255, , ,195.2635,96.5481
1115,32.9739,176.3244, , ,195.2635,96.9091
1117,33.0259,104.7259, , ,195.2635,96.4947
1119,33.0779,155.5474, , ,195.2635,96.7135
1121,33.1299,70.4719, , ,195.2635,96.2282
1123,33.1819,10.1606, , ,195.2635,95.8697
1125,33.2339,31.6297, , ,195.2635,95.9370
1127,33.2859,-76.0942, , ,195.2635,95.3998
1129,33.3379,54.8316, , ,195.2635,96.1795
1131,33.3899,41.1615, , ,195.2635,96.2043
1133,33.4419,24.2129, , ,195.2635,96.2121
1135,33.4939,96.2355, , ,195.2635,96.6811
1137,33.5459,155.7903, , ,195.2635,97.0836
1139,33.5979,293.4713, , ,195.2635,97.8844
1141,33.6499,273.1756, , ,195.2635,97.8750
1143,33.7019,286.6781, , ,195.2635,98.0380
1145,33.7539,180.3929, , ,195.2635,97.5042
1147,33.8059,60.7757, , ,195.2635,96.8131
1149,33.8579,51.5239, , ,195.2635,96.6895
1151,33.9099,24.3084, , ,195.2635,96.4727
1153,33.9619,-13.5775, , ,195.2635,96.1999
1155,34.0139,53.7690, , ,195.2635,96.4378
1157,34.0659,164.8530, , ,195.2635,96.9011
1159,34.1179,475.0150, , ,195.2635,98.3792
1161,34.1699,727.5864, , ,195.2635,99.5466
1163,34.2219,1249.68, , ,195.2635,101.9772
1165,34.2739,1819.62, , ,195.2635,104.5288
1167,34.3259,2063, , ,195.2635,105.4829
1169,34.3779,1556.38, , ,195.2635,102.8445
1171,34.4299,1028.94, , ,195.2635,100.0326
1173,34.4819,479.6323, , ,195.2635,97.0268
1175,34.5339,312.1030, , ,195.2635,95.9357
1177,34.5859,53.4891, , ,195.2635,94.3505
1179,34.6379,6.1456, , ,195.2635,93.8704
1181,34.6899,-17.6848, , ,195.2635,93.5352
1183,34.7419,-10.2906, , ,195.2635,93.3878
1185,34.7939,47.6983, , ,195.2635,93.5110
1187,34.8459,247.5067, , ,195.2635,94.3883
1189,34.8979,441.5478, , ,195.2635,95.2273
1191,34.9499,671.1870, , ,195.2635,96.2440
1193,35.0019,824.1834, , ,195.2635,96.8553
1195,35.0539,773.1195, , ,195.2635,96.4102
1197,35.1059,416.6944, , ,195.2635,94.3586
1199,35.1579,435.1553, , ,195.2635,94.2216
1201,35.2099,258.8385, , ,195.2635,92.9933
1203,35.2619,50.1217, , ,195.2635,91.5718
1205,35.3139,34.3209, , ,195.2635,91.1919
1207,35.3659,-66.2281, , ,195.2635,90.3425
1209,35.4179,-68.8463, , ,195.2635,89.8940
1211,35.4699,-13.4278, , ,195.2635,89.7671
1213,35.5219,-86.4057, , ,195.2635,88.9209
1215,35.5739,19.1073, , ,195.2635,89.0742
1217,35.6259,-4.6560, , ,195.2635,88.6091
1219,35.6779,-29.0856, , ,195.2635,88.2473
1221,35.7299,86.6313, , ,195.2635,88.6777
1223,35.7819,8.7535, , ,195.2635,88.0131
1225,35.8339,-19.6081, , ,195.2635,87.6264
1227,35.8859,54.7639, , ,195.2635,87.8350
1229,35.9379,16.3346, , ,195.2635,87.4001
1231,35.9899,5.5508, , ,195.2635,87.1219
1233,36.0419,6.8259, , ,195.2635,86.9121
1235,36.0939,-14.8753, , ,195.2635,86.6013
1237,36.1459,20.7454, , ,195.2635,86.6530
1239,36.1979,-1.4046, , ,195.2635,86.3709
1241,36.2499,62.2849, , ,195.2635,86.5849
1243,36.3019,-10.9995, , ,195.2635,86.0058
1245,36.3539,-7.8467, , ,195.2635,85.9647
1247,36.4059,81.4844, , ,195.2635,86.4236
1249,36.4579,117.6179, , ,195.2635,86.5734
1251,36.5099,5.1688, , ,195.2635,85.8620
1253,36.5619,134.3711, , ,195.2635,86.5521
1255,36.6139,129.7477, , ,195.2635,86.4663
1257,36.6659,62.3476, , ,195.2635,86.0162
1259,36.7179,86.1009, , ,195.2635,86.0948
1261,36.7699,-47.8738, , ,195.2635,85.2533
1263,36.8219,2.7223, , ,195.2635,85.4768
1265,36.8739,-104.1615, , ,195.2635,84.7759
1267,36.9259,-102.0221, , ,195.2635,84.7151
1269,36.9779,-105.8301, , ,195.2635,84.6191
1271,37.0299,128.7551, , ,195.2635,86.0037
1273,37.0819,-1.1707, , ,195.2635,85.3375
1275,37.1339,138.0743, , ,195.2635,86.2411
1277,37.1859,2.1455, , ,195.2635,85.5416
1279,37.2379,201.9910, , ,195.2635,86.7928
1281,37.2899,129.3286, , ,195.2635,86.4645
1283,37.3419,73.6431, , ,195.2635,86.2334
1285,37.3939,123.3608, , ,195.2635,86.6123
1287,37.4459,19.9316, , ,195.2635,86.1048
1289,37.4979,-7.4501, , ,195.2635,85.9812
1291,37.5499,-83.6846, , ,195.2635,85.5160
1293,37.6019,-2.3330, , ,195.2635,85.9696
1295,37.6539,-8.4546, , ,195.2635,85.9133
1297,37.7059,46.0573, , ,195.2635,86.2094
1299,37.7579,144.4427, , ,195.2635,86.7576
1301,37.8099,276.8355, , ,195.2635,87.4970
1303,37.8619,200.3909, , ,195.2635,87.0386
1305,37.9139,80.3469, , ,195.2635,86.3257
1307,37.9659,73.1605, , ,195.2635,86.2093
1309,38.0179,89.8889, , ,195.2635,86.1775
1311,38.0699,137.6948, , ,195.2635,86.3258
1313,38.1219,25.5505, , ,195.2635,85.5440
1315,38.1739,36.3449, , ,195.2635,85.4772
1317,38.2259,-13.7028, , ,195.2635,85.0011
1319,38.2779,-69.0278, , ,195.2635,84.4911
1321,38.3299,-35.9644, , ,195.2635,84.5027
1323,38.3819,-67.3090, , ,195.2635,84.1323
1325,38.4339,-23.1958, , ,195.2635,84.3715
1327,38.4859,58.4412, , ,195.2635,84.9923
1329,38.5379,34.9638, , ,195.2635,84.9924
1331,38.5899,182.2102, , ,195.2635,85.9910
1333,38.6419,45.0089, , ,195.2635,85.3274
1335,38.6939,18.5012, , ,195.2635,85.1360
1337,38.7459,65.1628, , ,195.2635,85.3738
1339,38.7979,169.6990, , ,195.2635,85.9483
1341,38.8499,291.6710, , ,195.2635,86.6197
1343,38.9019,368.6901, , ,195.2635,87.0281
1345,38.9539,519.1523, , ,195.2635,87.8535
1347,39.0059,548.1547, , ,195.2635,87.9837
1349,39.0579,324.2340, , ,195.2635,86.6666
1351,39.1099,264.2690, , ,195.2635,86.2845
1353,39.1619,204.7021, , ,195.2635,85.7306
1355,39.2139,110.2502, , ,195.2635,84.9680
1357,39.2659,-5.8471, , ,195.2635,84.0698
1359,39.3179,16.7973, , ,195.2635,83.9920
1361,39.3699,-41.1694, , ,195.2635,83.6311
1363,39.4219,-79.4023, , ,195.2635,83.5857
1365,39.4739,-96.3022, , ,195.2635,83.6679
1367,39.5259,-78.7146, , ,195.2635,83.9556
1369,39.5779,-158.7055, , ,195.2635,83.6613
1371,39.6299,-200.3818, , ,195.2635,83.5953
1373,39.6819,26.4062, , ,195.2635,85.1212
1375,39.7339,158.0367, , ,195.2635,86.0691
1377,39.7859,285.7300, , ,195.2635,86.9841
1379,39.8379,295.2789, , ,195.2635,87.2148
1381,39.8899,232.9096, , ,195.2635,87.0328
1383,39.9419,84.5294, , ,195.2635,86.3537
1384,39.9679,7.6617, , ,195.2635,85.9075