File: 2021/xrd/baseline_correction/pynmof.ASC
  4.010        0
  4.036    -1125
  4.062    -1633
  4.088    -1518
  4.114    -1132
  4.140     -138
  4.166     1135
  4.192     1805
  4.218     3054
  4.244     4329
  4.270     3673
  4.296     3409
  4.322     2994
  4.348     2634
  4.374     2483
  4.400     2093
  4.426     1880
  4.452     1734
  4.478     1593
  4.504     1173
  4.530     1090
  4.556      861
  4.582      882
  4.608      767
  4.634      698
  4.660      500
  4.686      524
  4.712      448
  4.738      285
  4.764      122
  4.790      235
  4.816      163
  4.842      134
  4.868      132
  4.894       16
  4.920      150
  4.946      222
  4.972       70
  4.998      159
  5.024      170
  5.050       77
  5.076        5
  5.102     -105
  5.128      -28
  5.154       10
  5.180      -58
  5.206      -19
  5.232      130
  5.258      244
  5.284      111
  5.310      -23
  5.336        1
  5.362      -24
  5.388       36
  5.414       29
  5.440      -51
  5.466      -13
  5.492      -95
  5.518     -167
  5.544      -33
  5.570       69
  5.596      -44
  5.622      -71
  5.648        6
  5.674       77
  5.700      -29
  5.726       -5
  5.752      -22
  5.778      -34
  5.804       33
  5.830       25
  5.856       58
  5.882      -75
  5.908       65
  5.934      -63
  5.960      -40
  5.986       76
  6.012      132
  6.038       73
  6.064     -115
  6.090       80
  6.116      113
  6.142      -87
  6.168     -109
  6.194      -25
  6.220      155
  6.246      -35
  6.272      -66
  6.298       83
  6.324      -20
  6.350        5
  6.376      -80
  6.402       91
  6.428      118
  6.454      136
  6.480       57
  6.506     -154
  6.532      -23
  6.558      282
  6.584       -2
  6.610      -77
  6.636      141
  6.662     -226
  6.688     -121
  6.714      -81
  6.740      -54
  6.766       44
  6.792       20
  6.818      314
  6.844     -211
  6.870      116
  6.896       87
  6.922      123
  6.948       51
  6.974      -61
  7.000     -229
  7.026      -88
  7.052      135
  7.078       63
  7.104      -14
  7.130      -30
  7.156      131
  7.182       51
  7.208      -41
  7.234       -5
  7.260      243
  7.286      102
  7.312      -37
  7.338       35
  7.364       25
  7.390       14
  7.416       20
  7.442       71
  7.468       17
  7.494      -10
  7.520      -30
  7.546       26
  7.572       34
  7.598       35
  7.624       67
  7.650       67
  7.676       56
  7.702       49
  7.728       28
  7.754       -2
  7.780      -82
  7.806      -39
  7.832      -59
  7.858      -92
  7.884     -152
  7.910     -184
  7.936      -77
  7.962       29
  7.988       24
  8.014        9
  8.040      141
  8.066      406
  8.092      663
  8.118      850
  8.144     1280
  8.170     1969
  8.196     2795
  8.222     3578
  8.248     4476
  8.274     5004
  8.300     4420
  8.326     3489
  8.352     2382
  8.378     1441
  8.404      697
  8.430      402
  8.456      195
  8.482      196
  8.508       95
  8.534      102
  8.560      357
  8.586      468
  8.612      610
  8.638     1150
  8.664     1586
  8.690     2194
  8.716     3081
  8.742     4079
  8.768     5836
  8.794     8012
  8.820    11075
  8.846    15394
  8.872    20456
  8.898    26145
  8.924    31433
  8.950    35748
  8.976    36340
  9.002    32601
  9.028    26857
  9.054    20192
  9.080    14338
  9.106     9833
  9.132     6981
  9.158     5293
  9.184     3917
  9.210     3302
  9.236     2767
  9.262     2442
  9.288     2448
  9.314     2419
  9.340     2931
  9.366     2953
  9.392     3014
  9.418     3587
  9.444     3586
  9.470     3500
  9.496     3370
  9.522     2862
  9.548     2421
  9.574     1787
  9.600     1260
  9.626      868
  9.652      540
  9.678      356
  9.704      227
  9.730      -20
  9.756      -83
  9.782      -21
  9.808      -92
  9.834      -52
  9.860      -36
  9.886      116
  9.912      107
  9.938      162
  9.964      217
  9.990      357
 10.016      561
 10.042      920
 10.068      999
 10.094     1703
 10.120     2335
 10.146     2784
 10.172     3451
 10.198     3850
 10.224     4066
 10.250     3881
 10.276     3465
 10.302     2884
 10.328     2207
 10.354     1517
 10.380      980
 10.406      555
 10.432      313
 10.458      179
 10.484       49
 10.510       81
 10.536        1
 10.562      -22
 10.588       23
 10.614      -58
 10.640      -90
 10.666     -165
 10.692     -130
 10.718      -23
 10.744       51
 10.770       34
 10.796      -99
 10.822      -27
 10.848       46
 10.874       30
 10.900       19
 10.926       53
 10.952     -113
 10.978     -105
 11.004       54
 11.030      -41
 11.056       77
 11.082      170
 11.108      386
 11.134      582
 11.160      825
 11.186     1452
 11.212     2176
 11.238     3144
 11.264     3951
 11.290     4596
 11.316     4865
 11.342     4499
 11.368     3549
 11.394     2497
 11.420     1434
 11.446      791
 11.472      256
 11.498       -2
 11.524     -162
 11.550     -116
 11.576       60
 11.602       87
 11.628      -76
 11.654     -110
 11.680     -168
 11.706      -35
 11.732      104
 11.758       31
 11.784       10
 11.810      255
 11.836      415
 11.862      331
 11.888      588
 11.914     1031
 11.940     1405
 11.966     2309
 11.992     3124
 12.018     4530
 12.044     6018
 12.070     8047
 12.096     8814
 12.122     9570
 12.148     9697
 12.174     9735
 12.200    10010
 12.226    10162
 12.252    10830
 12.278    12122
 12.304    14255
 12.330    15945
 12.356    17623
 12.382    19105
 12.408    21098
 12.434    23605
 12.460    27644
 12.486    33623
 12.512    41559
 12.538    51758
 12.564    62011
 12.590    70453
 12.616    74283
 12.642    72149
 12.668    63666
 12.694    50601
 12.720    36977
 12.746    25852
 12.772    17954
 12.798    12596
 12.824     8978
 12.850     6567
 12.876     5094
 12.902     3870
 12.928     2858
 12.954     2186
 12.980     1744
 13.006     1425
 13.032     1173
 13.058     1110
 13.084      880
 13.110      657
 13.136      705
 13.162      628
 13.188      652
 13.214      926
 13.240     1221
 13.266     1620
 13.292     2121
 13.318     2605
 13.344     2804
 13.370     2784
 13.396     2773
 13.422     2384
 13.448     1795
 13.474     1266
 13.500      648
 13.526      319
 13.552      201
 13.578      201
 13.604       52
 13.630       15
 13.656        8
 13.682       43
 13.708       44
 13.734      -50
 13.760       49
 13.786       13
 13.812      -46
 13.838      -45
 13.864       18
 13.890       29
 13.916      -17
 13.942       38
 13.968      -84
 13.994      -76
 14.020      -17
 14.046       77
 14.072       22
 14.098       -9
 14.124     -125
 14.150     -202
 14.176       21
 14.202        2
 14.228       -9
 14.254      -35
 14.280        9
 14.306        5
 14.332       -3
 14.358       33
 14.384      -79
 14.410       76
 14.436       13
 14.462       52
 14.488      139
 14.514      435
 14.540      533
 14.566      986
 14.592     1230
 14.618     1772
 14.644     2724
 14.670     3529
 14.696     4711
 14.722     5537
 14.748     6160
 14.774     6018
 14.800     5365
 14.826     4449
 14.852     3417
 14.878     2383
 14.904     1680
 14.930     1153
 14.956      687
 14.982      420
 15.008      327
 15.034      273
 15.060      355
 15.086      151
 15.112      167
 15.138      164
 15.164      -15
 15.190     -180
 15.216      -80
 15.242       31
 15.268      101
 15.294      122
 15.320       34
 15.346      164
 15.372      275
 15.398      232
 15.424      365
 15.450      523
 15.476      651
 15.502      979
 15.528     1548
 15.554     2054
 15.580     2580
 15.606     2904
 15.632     2999
 15.658     2939
 15.684     2528
 15.710     1929
 15.736     1297
 15.762      990
 15.788      764
 15.814      445
 15.840      293
 15.866      121
 15.892       52
 15.918       39
 15.944       -6
 15.970       25
 15.996      -25
 16.022      -21
 16.048       27
 16.074      -12
 16.100       -8
 16.126      -32
 16.152      -37
 16.178      -35
 16.204       63
 16.230       38
 16.256      -78
 16.282     -103
 16.308      -17
 16.334      -22
 16.360       24
 16.386      -21
 16.412      -52
 16.438       66
 16.464       73
 16.490      130
 16.516      312
 16.542      208
 16.568      274
 16.594      293
 16.620      335
 16.646      245
 16.672      187
 16.698      193
 16.724        3
 16.750     -108
 16.776      -18
 16.802       89
 16.828       37
 16.854       40
 16.880      -82
 16.906       81
 16.932      -93
 16.958       57
 16.984      -42
 17.010      230
 17.036      111
 17.062      188
 17.088      206
 17.114      343
 17.140      578
 17.166      422
 17.192      733
 17.218      696
 17.244      803
 17.270      719
 17.296      617
 17.322      361
 17.348      358
 17.374      290
 17.400      341
 17.426      315
 17.452       39
 17.478      120
 17.504       12
 17.530        3
 17.556      -18
 17.582      118
 17.608      -97
 17.634      -64
 17.660       93
 17.686        3
 17.712       73
 17.738       70
 17.764      134
 17.790      156
 17.816      301
 17.842      407
 17.868      776
 17.894     1013
 17.920     1325
 17.946     1689
 17.972     1983
 17.998     2075
 18.024     2117
 18.050     1989
 18.076     1627
 18.102     1092
 18.128      832
 18.154      619
 18.180      295
 18.206      195
 18.232      131
 18.258        0
 18.284      -22
 18.310       49
 18.336      -54
 18.362     -122
 18.388     -157
 18.414     -165
 18.440      -78
 18.466     -102
 18.492      -52
 18.518       31
 18.544        9
 18.570       26
 18.596       38
 18.622        8
 18.648      -70
 18.674     -127
 18.700      -90
 18.726      -15
 18.752       40
 18.778        3
 18.804       24
 18.830       88
 18.856      107
 18.882       31
 18.908       38
 18.934       98
 18.960      260
 18.986      275
 19.012      273
 19.038      345
 19.064      318
 19.090      441
 19.116      369
 19.142      146
 19.168      114
 19.194      -10
 19.220      -28
 19.246       75
 19.272      -63
 19.298      -85
 19.324      -83
 19.350      -85
 19.376      -30
 19.402       55
 19.428       -6
 19.454     -103
 19.480       37
 19.506      102
 19.532      -42
 19.558      -55
 19.584       55
 19.610       33
 19.636        1
 19.662       22
 19.688        1
 19.714       -4
 19.740        1
 19.766      -94
 19.792       12
 19.818       55
 19.844      156
 19.870      -82
 19.896      -17
 19.922       -9
 19.948      -23
 19.974      145
 20.000      122
 20.026       86
 20.052      193
 20.078      110
 20.104      183
 20.130      269
 20.156      250
 20.182      344
 20.208      280
 20.234      355
 20.260      120
 20.286      188
 20.312      268
 20.338      232
 20.364      195
 20.390      146
 20.416       75
 20.442       69
 20.468        6
 20.494      -92
 20.520      -63
 20.546      -20
 20.572      -97
 20.598      -70
 20.624       47
 20.650      102
 20.676        0
 20.702       89
 20.728      211
 20.754      428
 20.780     1080
 20.806     1192
 20.832      914
 20.858      597
 20.884      319
 20.910      108
 20.936       55
 20.962       86
 20.988       25
 21.014       -3
 21.040      -65
 21.066      -72
 21.092       18
 21.118       60
 21.144      137
 21.170      279
 21.196      373
 21.222      430
 21.248      724
 21.274     1172
 21.300     1579
 21.326     1959
 21.352     2357
 21.378     2558
 21.404     2537
 21.430     2323
 21.456     1915
 21.482     1430
 21.508      992
 21.534      799
 21.560      643
 21.586      441
 21.612      426
 21.638      358
 21.664      436
 21.690      664
 21.716      807
 21.742      798
 21.768      922
 21.794     1144
 21.820     1484
 21.846     1552
 21.872     1745
 21.898     1835
 21.924     1550
 21.950     1340
 21.976      999
 22.002      836
 22.028      522
 22.054      286
 22.080      208
 22.106     -126
 22.132      -46
 22.158      -65
 22.184       16
 22.210      -62
 22.236      -58
 22.262       69
 22.288       -1
 22.314      -53
 22.340       58
 22.366     -122
 22.392      -66
 22.418      -24
 22.444     -120
 22.470      -61
 22.496       43
 22.522       67
 22.548      -38
 22.574       23
 22.600       35
 22.626      204
 22.652       88
 22.678      323
 22.704      428
 22.730      380
 22.756      365
 22.782      427
 22.808      426
 22.834      234
 22.860      221
 22.886      281
 22.912      160
 22.938       14
 22.964      -12
 22.990       17
 23.016     -120
 23.042     -155
 23.068      -12
 23.094       25
 23.120       14
 23.146       72
 23.172      107
 23.198      152
 23.224       98
 23.250      -42
 23.276     -113
 23.302     -115
 23.328       30
 23.354     -104
 23.380     -162
 23.406      -45
 23.432       59
 23.458       13
 23.484       21
 23.510      115
 23.536      133
 23.562      225
 23.588      224
 23.614       95
 23.640       68
 23.666       89
 23.692       79
 23.718       95
 23.744      151
 23.770      353
 23.796      760
 23.822     1168
 23.848     1503
 23.874     1705
 23.900     1804
 23.926     1855
 23.952     1847
 23.978     1883
 24.004     2160
 24.030     2531
 24.056     2660
 24.082     2619
 24.108     2323
 24.134     1947
 24.160     1484
 24.186     1060
 24.212      482
 24.238       57
 24.264     -175
 24.290      -11
 24.316       27
 24.342       61
 24.368      227
 24.394      284
 24.420      734
 24.446     1139
 24.472     1750
 24.498     2186
 24.524     2326
 24.550     2814
 24.576     3031
 24.602     3403
 24.628     3494
 24.654     3852
 24.680     4229
 24.706     4859
 24.732     4836
 24.758     4991
 24.784     4992
 24.810     4657
 24.836     4518
 24.862     4260
 24.888     4460
 24.914     4489
 24.940     4691
 24.966     4951
 24.992     5324
 25.018     6098
 25.044     6669
 25.070     8171
 25.096     9951
 25.122    12031
 25.148    14489
 25.174    16594
 25.200    18252
 25.226    19090
 25.252    18517
 25.278    17745
 25.304    16865
 25.330    16225
 25.356    16045
 25.382    15799
 25.408    15084
 25.434    14037
 25.460    12244
 25.486    10339
 25.512     7976
 25.538     5822
 25.564     4094
 25.590     2658
 25.616     1707
 25.642     1002
 25.668      524
 25.694      202
 25.720        6
 25.746      -49
 25.772       19
 25.798      269
 25.824      300
 25.850      348
 25.876      393
 25.902      326
 25.928      286
 25.954      207
 25.980      137
 26.006       85
 26.032      -51
 26.058     -133
 26.084     -205
 26.110     -309
 26.136     -336
 26.162     -290
 26.188     -299
 26.214     -191
 26.240       28
 26.266      215
 26.292      557
 26.318     1032
 26.344     1694
 26.370     2339
 26.396     2868
 26.422     3611
 26.448     4170
 26.474     4144
 26.500     3845
 26.526     3321
 26.552     2681
 26.578     2079
 26.604     1346
 26.630      860
 26.656      500
 26.682      392
 26.708      308
 26.734      284
 26.760      511
 26.786      566
 26.812      411
 26.838      483
 26.864      612
 26.890      607
 26.916      472
 26.942      492
 26.968      293
 26.994      298
 27.020      296
 27.046      312
 27.072      341
 27.098      616
 27.124      794
 27.150      879
 27.176     1418
 27.202     1566
 27.228     2120
 27.254     2712
 27.280     3354
 27.306     4326
 27.332     5857
 27.358     7620
 27.384    10344
 27.410    13794
 27.436    18597
 27.462    24425
 27.488    31643
 27.514    39793
 27.540    48386
 27.566    55016
 27.592    58604
 27.618    59490
 27.644    58291
 27.670    53490
 27.696    46171
 27.722    38334
 27.748    30737
 27.774    23959
 27.800    18393
 27.826    14348
 27.852    11394
 27.878     9689
 27.904     8628
 27.930     7359
 27.956     6553
 27.982     5313
 28.008     4331
 28.034     3998
 28.060     3492
 28.086     3060
 28.112     3111
 28.138     2976
 28.164     2806
 28.190     2552
 28.216     2205
 28.242     1762
 28.268     1450
 28.294     1264
 28.320      927
 28.346      689
 28.372      496
 28.398      352
 28.424      388
 28.450      446
 28.476      247
 28.502      190
 28.528      111
 28.554      -24
 28.580        4
 28.606        9
 28.632       68
 28.658      279
 28.684      442
 28.710      665
 28.736      909
 28.762     1193
 28.788     1644
 28.814     2308
 28.840     3088
 28.866     4010
 28.892     4738
 28.918     5340
 28.944     5702
 28.970     5558
 28.996     5260
 29.022     4605
 29.048     3744
 29.074     2989
 29.100     2354
 29.126     1790
 29.152     1188
 29.178      814
 29.204      544
 29.230      331
 29.256      315
 29.282       42
 29.308      -60
 29.334      -98
 29.360     -115
 29.386     -160
 29.412     -131
 29.438      -27
 29.464     -154
 29.490      -63
 29.516      -72
 29.542      186
 29.568       57
 29.594      117
 29.620      153
 29.646      204
 29.672      239
 29.698      159
 29.724      351
 29.750      392
 29.776      482
 29.802      415
 29.828      338
 29.854      200
 29.880      108
 29.906      113
 29.932       37
 29.958      -37
 29.984       28
 30.010        2
 30.036      -12
 30.062     -127
 30.088     -181
 30.114      -53
 30.140      102
 30.166       69
 30.192      160
 30.218      148
 30.244      197
 30.270      255
 30.296      -10
 30.322      136
 30.348      142
 30.374      123
 30.400      120
 30.426      169
 30.452      149
 30.478      173
 30.504       94
 30.530      158
 30.556      119
 30.582       15
 30.608      102
 30.634      -79
 30.660      -63
 30.686       70
 30.712       11
 30.738      -26
 30.764        7
 30.790       11
 30.816      -13
 30.842     -116
 30.868       -9
 30.894      -59
 30.920      -64
 30.946       88
 30.972      109
 30.998      145
 31.024      145
 31.050      153
 31.076       29
 31.102       34
 31.128       57
 31.154       67
 31.180       70
 31.206       71
 31.232      125
 31.258       96
 31.284      128
 31.310      200
 31.336      273
 31.362      299
 31.388      365
 31.414      403
 31.440      416
 31.466      520
 31.492      575
 31.518      553
 31.544      537
 31.570      535
 31.596      514
 31.622      451
 31.648      418
 31.674      415
 31.700      276
 31.726       97
 31.752       63
 31.778       40
 31.804      -26
 31.830      -58
 31.856       24
 31.882       36
 31.908       78
 31.934      -23
 31.960       29
 31.986       24
 32.012       29
 32.038        4
 32.064       42
 32.090        3
 32.116      -13
 32.142      -46
 32.168      -63
 32.194      -58
 32.220       -4
 32.246      -36
 32.272       25
 32.298      -58
 32.324       58
 32.350      -48
 32.376       19
 32.402      -32
 32.428       31
 32.454       61
 32.480       76
 32.506      -39
 32.532      -63
 32.558       82
 32.584      -39
 32.610       10
 32.636      118
 32.662      125
 32.688        2
 32.714       27
 32.740      105
 32.766       12
 32.792      142
 32.818       96
 32.844       92
 32.870      200
 32.896       90
 32.922       98
 32.948      202
 32.974      176
 33.000      213
 33.026      105
 33.052      126
 33.078      156
 33.104      135
 33.130       70
 33.156       93
 33.182       10
 33.208       90
 33.234       32
 33.260      -18
 33.286      -76
 33.312       58
 33.338       55
 33.364       55
 33.390       41
 33.416       98
 33.442       24
 33.468      -14
 33.494       96
 33.520      140
 33.546      156
 33.572      230
 33.598      293
 33.624      316
 33.650      273
 33.676      271
 33.702      287
 33.728      191
 33.754      180
 33.780      196
 33.806       61
 33.832       14
 33.858       52
 33.884       13
 33.910       24
 33.936        8
 33.962      -14
 33.988        9
 34.014       54
 34.040      118
 34.066      165
 34.092      300
 34.118      475
 34.144      582
 34.170      728
 34.196      983
 34.222     1250
 34.248     1571
 34.274     1820
 34.300     1936
 34.326     2063
 34.352     1870
 34.378     1556
 34.404     1342
 34.430     1029
 34.456      687
 34.482      480
 34.508      402
 34.534      312
 34.560      192
 34.586       53
 34.612      105
 34.638        6
 34.664        1
 34.690      -18
 34.716       15
 34.742      -10
 34.768       56
 34.794       48
 34.820      153
 34.846      248
 34.872      374
 34.898      442
 34.924      652
 34.950      671
 34.976      805
 35.002      824
 35.028      887
 35.054      773
 35.080      634
 35.106      417
 35.132      388
 35.158      435
 35.184      277
 35.210      259
 35.236      122
 35.262       50
 35.288      -25
 35.314       34
 35.340      145
 35.366      -66
 35.392      -27
 35.418      -69
 35.444      -49
 35.470      -13
 35.496      -96
 35.522      -86
 35.548      -10
 35.574       19
 35.600      -33
 35.626       -5
 35.652       56
 35.678      -29
 35.704       60
 35.730       87
 35.756      100
 35.782        9
 35.808      -49
 35.834      -20
 35.860       33
 35.886       55
 35.912       81
 35.938       16
 35.964      -88
 35.990        6
 36.016       13
 36.042        7
 36.068      -31
 36.094      -15
 36.120       68
 36.146       21
 36.172       86
 36.198       -1
 36.224       38
 36.250       62
 36.276      -23
 36.302      -11
 36.328       13
 36.354       -8
 36.380       76
 36.406       81
 36.432       33
 36.458      118
 36.484      128
 36.510        5
 36.536       35
 36.562      134
 36.588       76
 36.614      130
 36.640      111
 36.666       62
 36.692       66
 36.718       86
 36.744       53
 36.770      -48
 36.796      -41
 36.822        3
 36.848      -57
 36.874     -104
 36.900      -75
 36.926     -102
 36.952     -113
 36.978     -106
 37.004      -27
 37.030      129
 37.056      132
 37.082       -1
 37.108       39
 37.134      138
 37.160       84
 37.186        2
 37.212       75
 37.238      202
 37.264      178
 37.290      129
 37.316       40
 37.342       74
 37.368       15
 37.394      123
 37.420       40
 37.446       20
 37.472        0
 37.498       -7
 37.524      -49
 37.550      -84
 37.576      -18
 37.602       -2
 37.628      -52
 37.654       -8
 37.680       24
 37.706       46
 37.732       49
 37.758      144
 37.784      159
 37.810      277
 37.836      151
 37.862      200
 37.888      214
 37.914       80
 37.940      113
 37.966       73
 37.992      114
 38.018       90
 38.044      105
 38.070      138
 38.096       85
 38.122       26
 38.148      -60
 38.174       36
 38.200       24
 38.226      -14
 38.252      -85
 38.278      -69
 38.304      -59
 38.330      -36
 38.356      -13
 38.382      -67
 38.408       40
 38.434      -23
 38.460       58
 38.486       58
 38.512       86
 38.538       35
 38.564      174
 38.590      182
 38.616      106
 38.642       45
 38.668       85
 38.694       19
 38.720       38
 38.746       65
 38.772      145
 38.798      170
 38.824      256
 38.850      292
 38.876      373
 38.902      369
 38.928      463
 38.954      519
 38.980      511
 39.006      548
 39.032      436
 39.058      324
 39.084      293
 39.110      264
 39.136      257
 39.162      205
 39.188      169
 39.214      110
 39.240       46
 39.266       -6
 39.292      -41
 39.318       17
 39.344       44
 39.370      -41
 39.396      -57
 39.422      -79
 39.448     -101
 39.474      -96
 39.500     -111
 39.526      -79
 39.552     -107
 39.578     -159
 39.604     -228
 39.630     -200
 39.656      -23
 39.682       26
 39.708       49
 39.734      158
 39.760      199
 39.786      286
 39.812      369
 39.838      295
 39.864      190
 39.890      233
 39.916      184
 39.942       85
 39.968        8