File: 2021/xrd/cif_files/pyn/pynmofsim.csv
angle,Int
1,0.00000000000000
1.08,0.01579
1.16,0.01414
1.24,0.01279
1.32,0.01167
1.4,0.01074
1.48,0.00995
1.56,0.00928
1.64,0.00871
1.72,0.00822
1.8,0.00779
1.88,0.00743
1.96,0.00711
2.04,0.00683
2.12,0.00659
2.2,0.00638
2.28,0.0062
2.36,0.00605
2.44,0.00592
2.52,0.00582
2.6,0.00573
2.68,0.00566
2.76,0.00561
2.84,0.00558
2.92,0.00556
3,0.00556
3.08,0.00558
3.16,0.00562
3.24,0.00567
3.32,0.00574
3.4,0.00584
3.48,0.00595
3.56,0.00609
3.64,0.00625
3.72,0.00644
3.8,0.00667
3.88,0.00693
3.96,0.00723
4.04,0.00758
4.12,0.00799
4.2,0.00847
4.28,0.00903
4.36,0.00969
4.44,0.01048
4.52,0.01143
4.6,0.01258
4.68,0.01399
4.76,0.01574
4.84,0.01798
4.92,0.02088
5,0.02475
5.08,0.03008
5.16,0.03776
5.24,0.04943
5.32,0.06854
5.4,0.10333
5.48,0.17792
5.56,0.39081
5.64,1.55856
5.72,100
5.8,1.2189
5.88,0.32017
5.96,0.14613
6.04,0.08635
6.12,0.061
6.2,0.05085
6.28,0.05114
6.36,0.0654
6.44,0.1178
6.52,0.40612
6.6,27.3311
6.68,0.40865
6.76,0.10351
6.84,0.04726
6.92,0.02747
7,0.01819
7.08,0.01306
7.16,0.00989
7.24,0.00779
7.32,0.00631
7.4,0.00523
7.48,0.00449
7.56,0.00386
7.64,0.00336
7.72,0.00296
7.8,0.00263
7.88,0.00236
7.96,0.00214
8.04,0.00203
8.12,0.00195
8.2,0.00192
8.28,0.00183
8.36,0.00177
8.44,0.00174
8.52,0.00173
8.6,0.00176
8.68,0.00183
8.76,0.00197
8.84,0.00221
8.92,0.00261
9,0.00336
9.08,0.00485
9.16,0.00893
9.24,0.02631
9.32,1.1383
9.4,0.07648
9.48,0.0136
9.56,0.00604
9.64,0.00375
9.72,0.0028
9.8,0.00228
9.88,0.00208
9.96,0.00201
10.04,0.00205
10.12,0.00216
10.2,0.00236
10.28,0.00265
10.36,0.00301
10.44,0.00372
10.52,0.00462
10.6,0.00622
10.68,0.00912
10.76,0.01594
10.84,0.03986
10.92,0.57728
11,0.48661
11.08,0.04188
11.16,0.02748
11.24,0.03628
11.32,0.08402
11.4,0.74662
11.48,2.4575
11.56,0.09769
11.64,0.03342
11.72,0.01688
11.8,0.01025
11.88,0.00696
11.96,0.0051
12.04,0.00396
12.12,0.00322
12.2,0.00274
12.28,0.00242
12.36,0.00217
12.44,0.0021
12.52,0.00213
12.6,0.00227
12.68,0.00258
12.76,0.00308
12.84,0.00411
12.92,0.00613
13,0.01075
13.08,0.02524
13.16,0.1297
13.24,1.8074
13.32,0.05708
13.4,0.01628
13.48,0.00769
13.56,0.00446
13.64,0.00295
13.72,0.00212
13.8,0.00162
13.88,0.00131
13.96,0.00111
14.04,0.00098
14.12,0.00091
14.2,0.00083
14.28,0.00091
14.36,0.00136
14.44,0.0045
14.52,0.00195
14.6,0.00342
14.68,0.00942
14.76,0.20927
14.84,0.11374
14.92,0.00743
15,0.00274
15.08,0.00144
15.16,0.00083
15.24,0.00056
15.32,0.00041
15.4,0.00031
15.48,0.00025
15.56,0.00022
15.64,0.00019
15.72,0.00019
15.8,0.00019
15.88,0.00039
15.96,0.00043
16.04,0.00074
16.12,0.00209
16.2,0.07157
16.28,0.00532
16.36,0.00112
16.44,0.00075
16.52,0.00071
16.6,0.0008
16.68,0.00099
16.76,0.00132
16.84,0.0019
16.92,0.00307
17,0.00588
17.08,0.01596
17.16,0.19106
17.24,0.50357
17.32,0.01933
17.4,0.00633
17.48,0.00319
17.56,0.00194
17.64,0.00132
17.72,0.00098
17.8,0.00078
17.88,0.00065
17.96,0.00058
18.04,0.00054
18.12,0.00059
18.2,0.00067
18.28,0.00074
18.36,0.00087
18.44,0.00102
18.52,0.00165
18.6,0.00336
18.68,0.01664
18.76,0.10575
18.84,0.00768
18.92,0.00295
19,0.00225
19.08,0.00229
19.16,0.00272
19.24,0.00361
19.32,0.00537
19.4,0.00941
19.48,0.02285
19.56,0.20096
19.64,0.70106
19.72,0.04385
19.8,0.05466
19.88,1.26477
19.96,0.12936
20.04,0.01847
20.12,0.00795
20.2,0.00455
20.28,0.003
20.36,0.00216
20.44,0.00166
20.52,0.00135
20.6,0.00116
20.68,0.00109
20.76,0.0012
20.84,0.00184
20.92,0.00894
21,0.03599
21.08,0.00311
21.16,0.00112
21.24,0.0007
21.32,0.00057
21.4,0.00058
21.48,0.00083
21.56,0.0015
21.64,0.00407
21.72,0.06523
21.8,0.09794
21.88,0.00488
21.96,0.00513
22.04,0.01264
22.12,0.00141
22.2,0.00069
22.28,0.00049
22.36,0.00044
22.44,0.00042
22.52,0.00043
22.6,0.00046
22.68,0.00052
22.76,0.00064
22.84,0.0009
22.92,0.00209
23,0.02717
23.08,0.00469
23.16,0.00158
23.24,0.00172
23.32,0.00226
23.4,0.00332
23.48,0.00561
23.56,0.0121
23.64,0.04767
23.72,0.70362
23.8,0.11222
23.88,0.02663
23.96,0.13303
24.04,0.02292
24.12,0.00533
24.2,0.00306
24.28,0.00227
24.36,0.00197
24.44,0.00196
24.52,0.00227
24.6,0.0031
24.68,0.00536
24.76,0.01438
24.84,0.25042
24.92,0.27937
25,0.01583
25.08,0.00583
25.16,0.00378
25.24,0.00345
25.32,0.0046
25.4,0.00937
25.48,0.05057
25.56,0.17619
25.64,0.03213
25.72,0.00709
25.8,0.00348
25.88,0.0023
25.96,0.00183
26.04,0.00168
26.12,0.00174
26.2,0.00204
26.28,0.0027
26.36,0.00414
26.44,0.00809
26.52,0.0256
26.6,0.6181
26.68,0.33363
26.76,0.01833
26.84,0.00658
26.92,0.00365
27,0.00253
27.08,0.00219
27.16,0.00238
27.24,0.00387
27.32,0.00718
27.4,0.0458
27.48,0.09544
27.56,0.02018
27.64,0.00482
27.72,0.00255
27.8,0.00185
27.88,0.00168
27.96,0.00187
28.04,0.00261
28.12,0.00513
28.2,0.02346
28.28,0.10493
28.36,0.0305
28.44,0.00527
28.52,0.00323
28.6,0.00325
28.68,0.00473
28.76,0.01182
28.84,0.22182
28.92,0.14301
29,0.04621
29.08,0.0884
29.16,0.02605
29.24,0.0056
29.32,0.00292
29.4,0.00204
29.48,0.00168
29.56,0.00152
29.64,0.00151
29.72,0.00162
29.8,0.0022
29.88,0.00247
29.96,0.00287
30.04,0.00403
30.12,0.00637
30.2,0.0121
30.28,0.03352
30.36,0.47099
30.44,0.3796
30.52,0.06168
30.6,0.03742
30.68,0.01602
30.76,0.00559
30.84,0.0038
30.92,0.00319
31,0.00327
31.08,0.00425
31.16,0.00777
31.24,0.02817
31.32,0.32713
31.4,0.15761
31.48,0.01144
31.56,0.00458
31.64,0.0028
31.72,0.00241
31.8,0.00525
31.88,0.01469
31.96,0.00735
32.04,0.00145
32.12,0.00093
32.2,0.00075
32.28,0.00071
32.36,0.00075
32.44,0.00088
32.52,0.00116
32.6,0.00197
32.68,0.00677
32.76,0.03616
32.84,0.02074
32.92,0.00353
33,0.00353
33.08,0.00568
33.16,0.01454
33.24,0.1968
33.32,0.118
33.4,0.06974
33.48,0.04733
33.56,0.0197
33.64,0.00503
33.72,0.00299
33.8,0.0024
33.88,0.00246
33.96,0.00346
34.04,0.00923
34.12,0.12402
34.2,0.06848
34.28,0.0067
34.36,0.00412
34.44,0.00484
34.52,0.00923
34.6,0.08687
34.68,0.05764
34.76,0.2162
34.84,0.12489
34.92,0.04554
35,0.00963
35.08,0.00462
35.16,0.00288
35.24,0.00206
35.32,0.00164
35.4,0.00144
35.48,0.00138
35.56,0.00144
35.64,0.00166
35.72,0.00218
35.8,0.00354
35.88,0.0108
35.96,0.03296
36.04,0.05633
36.12,0.13931
36.2,0.10929
36.28,0.00954
36.36,0.00407
36.44,0.00258
36.52,0.00206
36.6,0.00197
36.68,0.00275
36.76,0.00533
36.84,0.00543
36.92,0.00419
37,0.00708
37.08,0.01672
37.16,0.10434
37.24,0.20265
37.32,0.17986
37.4,0.01683
37.48,0.00673
37.56,0.00382
37.64,0.0026
37.72,0.00204
37.8,0.00186
37.88,0.00231
37.96,0.01349
38.04,0.00678
38.12,0.00458
38.2,0.00279
38.28,0.00432
38.36,0.01252
38.44,0.18425
38.52,0.06928
38.6,0.01722
38.68,0.00598
38.76,0.00298
38.84,0.00261
38.92,0.00308
39,0.00478
39.08,0.01092
39.16,0.08037
39.24,0.08789
39.32,0.09191
39.4,0.00987
39.48,0.00489
39.56,0.00538
39.64,0.04674
39.72,0.0172
39.8,0.02452
39.88,0.01022
39.96,0.00293
40.04,0.00209
40.12,0.00239
40.2,0.00369
40.28,0.00887
40.36,0.09557
40.44,0.04147
40.52,0.03561
40.6,0.00693
40.68,0.00666
40.76,0.02056
40.84,0.10838
40.92,0.08948
41,0.02333
41.08,0.02071
41.16,0.00348
41.24,0.00211
41.32,0.00188
41.4,0.00235
41.48,0.00644
41.56,0.03069
41.64,0.02323
41.72,0.00438
41.8,0.00431
41.88,0.01049
41.96,0.13662
42.04,0.03842
42.12,0.0196
42.2,0.00436
42.28,0.00249
42.36,0.00193
42.44,0.00178
42.52,0.0019
42.6,0.00253
42.68,0.00834
42.76,0.00538
42.84,0.00487
42.92,0.00748
43,0.01809
43.08,0.18681
43.16,0.08566
43.24,0.3488
43.32,0.14673
43.4,0.03262
43.48,0.01158
43.56,0.00913
43.64,0.01266
43.72,0.04433
43.8,0.20059
43.88,0.14107
43.96,0.02508
44.04,0.01711
44.12,0.04495
44.2,0.34147
44.28,0.14907
44.36,0.05333
44.44,0.03319
44.52,0.00719
44.6,0.00401
44.68,0.00287
44.76,0.00234
44.84,0.00218
44.92,0.00225
45,0.00275
45.08,0.00418
45.16,0.00958
45.24,0.08488
45.32,0.0441
45.4,0.12035
45.48,0.02103
45.56,0.01139
45.64,0.00319
45.72,0.0019
45.8,0.0015
45.88,0.00218
45.96,0.0037
46.04,0.00356
46.12,0.00121
46.2,0.00133
46.28,0.00514
46.36,0.00794
46.44,0.00968
46.52,0.00154
46.6,0.00087
46.68,0.00082
46.76,0.00099
46.84,0.00159
46.92,0.00571
47,0.01975
47.08,0.013
47.16,0.00353
47.24,0.00208
47.32,0.00338
47.4,0.00681
47.48,0.05374
47.56,0.01422
47.64,0.02104
47.72,0.00407
47.8,0.00354
47.88,0.00557
47.96,0.02534
48.04,0.0418
48.12,0.0466
48.2,0.0131
48.28,0.01857
48.36,0.14201
48.44,0.08116
48.52,0.25639
48.6,0.04671
48.68,0.03019
48.76,0.00816
48.84,0.00599
48.92,0.00865
49,0.06501
49.08,0.02125
49.16,0.03952
49.24,0.00877
49.32,0.01591
49.4,0.11119
49.48,0.04802
49.56,0.04465
49.64,0.03396
49.72,0.00693
49.8,0.0039
49.88,0.00455
49.96,0.01562
50.04,0.04667
50.12,0.02598
50.2,0.00986
50.28,0.00468
50.36,0.02219
50.44,0.01015
50.52,0.01913
50.6,0.00282
50.68,0.00144
50.76,0.00114
50.84,0.0011
50.92,0.00154
51,0.00622
51.08,0.00255
51.16,0.00376
51.24,0.00496
51.32,0.02516
51.4,0.0384
51.48,0.09767
51.56,0.02112
51.64,0.02739
51.72,0.00422
51.8,0.00205
51.88,0.00137
51.96,0.00131
52.04,0.00094
52.12,0.00098
52.2,0.00096
52.28,0.00154
52.36,0.00283
52.44,0.01414
52.52,0.00373
52.6,0.00674
52.68,0.00165
52.76,0.0014
52.84,0.00156
52.92,0.00194
53,0.00271
53.08,0.00438
53.16,0.00943
53.24,0.05471
53.32,0.06654
53.4,0.13493
53.48,0.03254
53.56,0.03522
53.64,0.00948
53.72,0.0106
53.8,0.03101
53.88,0.17487
53.96,0.04388
54.04,0.06178
54.12,0.02355
54.2,0.14381
54.28,0.05112
54.36,0.10324
54.44,0.01618
54.52,0.00619
54.6,0.00407
54.68,0.00385
54.76,0.00917
54.84,0.01135
54.92,0.01003
55,0.00887
55.08,0.02087
55.16,0.11507
55.24,0.05508
55.32,0.05575
55.4,0.02932
55.48,0.008
55.56,0.00459
55.64,0.00675
55.72,0.04311
55.8,0.01043
55.88,0.0234
55.96,0.00595
56.04,0.01673
56.12,0.01612
56.2,0.04314
56.28,0.01194
56.36,0.01408
56.44,0.0034
56.52,0.00279
56.6,0.00654
56.68,0.00685
56.76,0.0069
56.84,0.00778
56.92,0.02383
57,0.07545
57.08,0.08535
57.16,0.04399
57.24,0.04226
57.32,0.00849
57.4,0.00412
57.48,0.00484
57.56,0.01137
57.64,0.00482
57.72,0.00761
57.8,0.0105
57.88,0.06631
57.96,0.01416
58.04,0.03401
58.12,0.00619
58.2,0.00408
58.28,0.00518
58.36,0.01342
58.44,0.08059
58.52,0.01851
58.6,0.04455
58.68,0.01912
58.76,0.10603
58.84,0.042
58.92,0.07489
59,0.02296
59.08,0.01421
59.16,0.00823
59.24,0.0163
59.32,0.10359
59.4,0.02443
59.48,0.05867
59.56,0.02295
59.64,0.11161
59.72,0.04422
59.8,0.07573
59.88,0.02335
59.96,0.01363
60.04,0.00495
60.12,0.00449
60.2,0.01219
60.28,0.00496
60.36,0.00899
60.44,0.0085
60.52,0.03213
60.6,0.07869
60.68,0.07582
60.76,0.04491
60.84,0.03678
60.92,0.00746
61,0.00408
61.08,0.00425
61.16,0.00263
61.24,0.00357
61.32,0.00634
61.4,0.03122
61.48,0.00702
61.56,0.01691
61.64,0.00373
61.72,0.00201
61.8,0.00181
61.88,0.00219
61.96,0.00309
62.04,0.00394
62.12,0.00797
62.2,0.03396
62.28,0.08528
62.36,0.04352
62.44,0.05493
62.52,0.01898
62.6,0.00785
62.68,0.00844
62.76,0.04244
62.84,0.02711
62.92,0.02131
63,0.02105
63.08,0.0283
63.16,0.01786
63.24,0.01523
63.32,0.01226
63.4,0.00524
63.48,0.0038
63.56,0.00744
63.64,0.0365
63.72,0.00996
63.8,0.02136
63.88,0.01874
63.96,0.07823
64.04,0.03149
64.12,0.04461
64.2,0.01653
64.28,0.00901
64.36,0.00564
64.44,0.01824
64.52,0.02224
64.6,0.01012
64.68,0.01911
64.76,0.02445
64.84,0.02198
64.92,0.01072
65,0.01672
65.08,0.00368
65.16,0.00251
65.24,0.00352
65.32,0.0131
65.4,0.00443
65.48,0.00786
65.56,0.00774
65.64,0.02146
65.72,0.06342
65.8,0.02839
65.88,0.02525
65.96,0.01949
66.04,0.00543
66.12,0.00748
66.2,0.00632
66.28,0.00621
66.36,0.01322
66.44,0.06722
66.52,0.03627
66.6,0.03159
66.68,0.02998
66.76,0.0111
66.84,0.00363
66.92,0.00222
67,0.00185
67.08,0.00201
67.16,0.00319
67.24,0.01306
67.32,0.02102
67.4,0.01218
67.48,0.01679
67.56,0.00664
67.64,0.00391
67.72,0.00711
67.8,0.03452
67.88,0.00846
67.96,0.01369
68.04,0.00771
68.12,0.00289
68.2,0.00138
68.28,0.00137
68.36,0.00101
68.44,0.001
68.52,0.0015
68.6,0.00573
68.68,0.00306
68.76,0.0035
68.84,0.00721
68.92,0.02634
69,0.01701
69.08,0.01451
69.16,0.01008
69.24,0.00804
69.32,0.00404
69.4,0.01347
69.48,0.00951
69.56,0.00614
69.64,0.01331
69.72,0.02806
69.8,0.02455
69.88,0.0207
69.96,0.01485
70.04,0.01504
70.12,0.00452
70.2,0.00822
70.28,0.00757
70.36,0.00348
70.44,0.00756
70.52,0.00573
70.6,0.0115
70.68,0.01177
70.76,0.00532
70.84,0.01033
70.92,0.00342
71,0.00624
71.08,0.00688
71.16,0.00321
71.24,0.00797
71.32,0.01726
71.4,0.00842
71.48,0.00502
71.56,0.00956
71.64,0.00233
71.72,0.00172
71.8,0.00451
71.88,0.00515
71.96,0.00264
72.04,0.0067
72.12,0.01796
72.2,0.00866
72.28,0.00527
72.36,0.01013
72.44,0.00274
72.52,0.00221
72.6,0.00767
72.68,0.00746
72.76,0.0028
72.84,0.007
72.92,0.00363
73,0.00336
73.08,0.00267
73.16,0.00186
73.24,0.0024
73.32,0.00133
73.4,0.0032
73.48,0.00259
73.56,0.00181
73.64,0.00458
73.72,0.01216
73.8,0.0095
73.88,0.00662
73.96,0.00659
74.04,0.00552
74.12,0.00247
74.2,0.00534
74.28,0.00337
74.36,0.00329
74.44,0.00989
74.52,0.02945
74.6,0.00765
74.68,0.00873
74.76,0.01089
74.84,0.00243
74.92,0.00127
75,0.001
75.08,0.00106
75.16,0.00164
75.24,0.00567
75.32,0.01393
75.4,0.0046
75.48,0.00599
75.56,0.00514
75.64,0.00207
75.72,0.00221
75.8,0.00532
75.88,0.00196
75.96,0.00279
76.04,0.00729
76.12,0.00769
76.2,0.00344
76.28,0.00502
76.36,0.00307
76.44,0.00161
76.52,0.00167
76.6,0.00227
76.68,0.00191
76.76,0.00388
76.84,0.01357
76.92,0.02113
77,0.01996
77.08,0.01172
77.16,0.01391
77.24,0.00707
77.32,0.00283
77.4,0.002
77.48,0.00188
77.56,0.00434
77.64,0.01472
77.72,0.00479
77.8,0.00379
77.88,0.00744
77.96,0.00218
78.04,0.00145
78.12,0.00216
78.2,0.00183
78.28,0.00276
78.36,0.00927
78.44,0.0188
78.52,0.01333
78.6,0.00933
78.68,0.01052
78.76,0.00925
78.84,0.01677
78.92,0.03553
79,0.00962
79.08,0.0131
79.16,0.02088
79.24,0.01115
79.32,0.00869
79.4,0.00545
79.48,0.00516
79.56,0.0037
79.64,0.00154
79.72,0.00127
79.8,0.00149
79.88,0.00281
79.96,0.00847
80.04,0.01437
80.12,0.00779
80.2,0.00635
80.28,0.00921
80.36,0.00779
80.44,0.01916
80.52,0.00685
80.6,0.00494
80.68,0.01275
80.76,0.00776
80.84,0.00244
80.92,0.00268
81,0.00297
81.08,0.00115
81.16,0.00088
81.24,0.0009
81.32,0.00112
81.4,0.00194
81.48,0.00586
81.56,0.01156
81.64,0.00944
81.72,0.00494
81.8,0.00675
81.88,0.0053
81.96,0.0023
82.04,0.00223
82.12,0.00354
82.2,0.01181
82.28,0.02831
82.36,0.01292
82.44,0.00923
82.52,0.01603
82.6,0.00811
82.68,0.00766
82.76,0.01275
82.84,0.00545
82.92,0.00802
83,0.02702
83.08,0.01837
83.16,0.00742
83.24,0.01201
83.32,0.0111
83.4,0.00634
83.48,0.01411
83.56,0.01079
83.64,0.00737
83.72,0.021
83.8,0.04843
83.88,0.01477
83.96,0.01024
84.04,0.02367
84.12,0.00907
84.2,0.00521
84.28,0.00761
84.36,0.00364
84.44,0.00387
84.52,0.00912
84.6,0.0164
84.68,0.02041
84.76,0.00717
84.84,0.00844
84.92,0.01289
85,0.00689
85.08,0.00445
85.16,0.00254
85.24,0.00369
85.32,0.00692
85.4,0.016
85.48,0.00782
85.56,0.00425
85.64,0.00804
85.72,0.00672
85.8,0.00499
85.88,0.00431
85.96,0.00814
86.04,0.0318
86.12,0.0335
86.2,0.01476
86.28,0.01465
86.36,0.02186
86.44,0.0096
86.52,0.00597
86.6,0.00427
86.68,0.00292
86.76,0.00579
86.84,0.01373
86.92,0.00514
87,0.00313
87.08,0.00641
87.16,0.00443
87.24,0.00407
87.32,0.00787
87.4,0.00342
87.48,0.0031
87.56,0.00769
87.64,0.00965
87.72,0.00921
87.8,0.00444
87.88,0.00567
87.96,0.00908
88.04,0.01691
88.12,0.01343
88.2,0.00585
88.28,0.01047
88.36,0.02234
88.44,0.01848
88.52,0.00894
88.6,0.0077
88.68,0.00861
88.76,0.00664
88.84,0.00283
88.92,0.00236
89,0.00329
89.08,0.00832
89.16,0.01558
89.24,0.01671
89.32,0.00727
89.4,0.00916
89.48,0.01447
89.56,0.0193
89.64,0.01376
89.72,0.00709
89.8,0.01473
89.88,0.03195
89.96,0.01134
90.04,0.0061
90.12,0.01146
90.2,0.00961
90.28,0.00675
90.36,0.00998
90.44,0.00583
90.52,0.0087
90.6,0.02882
90.68,0.02486
90.76,0.0098
90.84,0.00993
90.92,0.01831
91,0.01084
91.08,0.01622
91.16,0.01136
91.24,0.00515
91.32,0.00846
91.4,0.01653
91.48,0.00711
91.56,0.0035
91.64,0.00455
91.72,0.00422
91.8,0.00239
91.88,0.00179
91.96,0.00209
92.04,0.00387
92.12,0.01146
92.2,0.01547
92.28,0.01227
92.36,0.00642
92.44,0.00938
92.52,0.01104
92.6,0.013
92.68,0.00795
92.76,0.00392
92.84,0.00646
92.92,0.01234
93,0.00497
93.08,0.00268
93.16,0.00387
93.24,0.00402
93.32,0.00287
93.4,0.00349
93.48,0.00352
93.56,0.00667
93.64,0.01995
93.72,0.02861
93.8,0.02316
93.88,0.01097
93.96,0.01529
94.04,0.01886
94.12,0.01875
94.2,0.01055
94.28,0.00587
94.36,0.01063
94.44,0.02072
94.52,0.00887
94.6,0.00442
94.68,0.00655
94.76,0.00779
94.84,0.00466
94.92,0.00485
95,0.00339
95.08,0.00542
95.16,0.01602
95.24,0.01348
95.32,0.0049
95.4,0.00463
95.48,0.00958
95.56,0.00648
95.64,0.00581
95.72,0.00409
95.8,0.00208
95.88,0.00259
95.96,0.00474
96.04,0.00264
96.12,0.00149
96.2,0.0017
96.28,0.00231
96.36,0.00311
96.44,0.00497
96.52,0.00344
96.6,0.00513
96.68,0.01464
96.76,0.01688
96.84,0.0097
96.92,0.00585
97,0.00947
97.08,0.01022
97.16,0.01148
97.24,0.00885
97.32,0.00595
97.4,0.01118
97.48,0.02599
97.56,0.02499
97.64,0.01314
97.72,0.00901
97.8,0.01384
97.88,0.01455
97.96,0.01195
98.04,0.00611
98.12,0.00549
98.2,0.01184
98.28,0.01874
98.36,0.01566
98.44,0.00729
98.52,0.00753
98.6,0.01039
98.68,0.01241
98.76,0.00903
98.84,0.00533
98.92,0.00872
99,0.02088
99.08,0.01359
99.16,0.00531
99.24,0.0051
99.32,0.00993
99.4,0.0065
99.48,0.00264
99.56,0.00181
99.64,0.00196
99.72,0.0036
99.8,0.00697
99.88,0.00908
99.96,0.00452
100.04,0.00292
100.12,0.00412
100.2,0.00555
100.28,0.00375
100.36,0.0019
100.44,0.00177
100.52,0.00312
100.6,0.00529
100.68,0.00511
100.76,0.0025
100.84,0.00238
100.92,0.00381
101,0.00639
101.08,0.00481
101.16,0.00266
101.24,0.00323
101.32,0.00644
101.4,0.00902
101.48,0.00608
101.56,0.00425
101.64,0.00632
101.72,0.01403
101.8,0.02779
101.88,0.0166
101.96,0.01063
102.04,0.02092
102.12,0.03458
102.2,0.01872
102.28,0.00802
102.36,0.0085
102.44,0.01399
102.52,0.00764
102.6,0.00336
102.68,0.00244
102.76,0.00295
102.84,0.0058
102.92,0.00814
103,0.00722
103.08,0.00355
103.16,0.00326
103.24,0.00472
103.32,0.00538
103.4,0.00362
103.48,0.0025
103.56,0.00393
103.64,0.00851
103.72,0.00906
103.8,0.00586
103.88,0.00317
103.96,0.00399
104.04,0.00512
104.12,0.00422
104.2,0.00237
104.28,0.00206
104.36,0.00378
104.44,0.00706
104.52,0.00635
104.6,0.00369
104.68,0.00242
104.76,0.00354
104.84,0.00417
104.92,0.0035
105,0.00217
105.08,0.0023
105.16,0.00491
105.24,0.00711
105.32,0.00355
105.4,0.00199
105.48,0.00232
105.56,0.00416
105.64,0.00404
105.72,0.00331
105.8,0.00266
105.88,0.00358
105.96,0.00792
106.04,0.01229
106.12,0.01141
106.2,0.00631
106.28,0.0055
106.36,0.00948
106.44,0.01675
106.52,0.02063
106.6,0.01077
106.68,0.00916
106.76,0.01775
106.84,0.02338
106.92,0.01611
107,0.00764
107.08,0.00668
107.16,0.01049
107.24,0.00963
107.32,0.00677
107.4,0.00384
107.48,0.00395
107.56,0.00725
107.64,0.00808
107.72,0.0053
107.8,0.00287
107.88,0.00283
107.96,0.00446
108.04,0.00427
108.12,0.00307
108.2,0.00167
108.28,0.00129
108.36,0.00158
108.44,0.00174
108.52,0.00143
108.6,0.00117
108.68,0.00132
108.76,0.00193
108.84,0.00304
108.92,0.0038
109,0.00403
109.08,0.00792
109.16,0.01852
109.24,0.01987
109.32,0.01217
109.4,0.00645
109.48,0.00661
109.56,0.01157
109.64,0.01193
109.72,0.0085
109.8,0.00449
109.88,0.00375
109.96,0.00582
110.04,0.00712
110.12,0.00578
110.2,0.00333
110.28,0.00286
110.36,0.00432
110.44,0.00627
110.52,0.00688
110.6,0.00472
110.68,0.00549
110.76,0.01109
110.84,0.01516
110.92,0.0125
111,0.00682
111.08,0.00512
111.16,0.00786
111.24,0.01219
111.32,0.01359
111.4,0.00774
111.48,0.00472
111.56,0.00608
111.64,0.00831
111.72,0.00721
111.8,0.00421
111.88,0.00266
111.96,0.00306
112.04,0.00384
112.12,0.00269
112.2,0.00208
112.28,0.00251
112.36,0.00456
112.44,0.00925
112.52,0.01439
112.6,0.01076
112.68,0.00516
112.76,0.00393
112.84,0.0057
112.92,0.00883
113,0.00805
113.08,0.00444
113.16,0.00408
113.24,0.00624
113.32,0.00631
113.4,0.00456
113.48,0.00272
113.56,0.00251
113.64,0.00396
113.72,0.00585
113.8,0.00584
113.88,0.00335
113.96,0.00234
114.04,0.003
114.12,0.00406
114.2,0.00433
114.28,0.00294
114.36,0.0021
114.44,0.00263
114.52,0.0047
114.6,0.00703
114.68,0.00526
114.76,0.00355
114.84,0.0047
114.92,0.00726
115,0.0065
115.08,0.00473
115.16,0.00308
115.24,0.0032
115.32,0.00533
115.4,0.00786
115.48,0.0073
115.56,0.0046
115.64,0.00455
115.72,0.00761
115.8,0.01037
115.88,0.0103
115.96,0.00635
116.04,0.0039
116.12,0.00415
116.2,0.00595
116.28,0.00668
116.36,0.00586
116.44,0.00616
116.52,0.01126
116.6,0.01892
116.68,0.01498
116.76,0.00848
116.84,0.0051
116.92,0.00518
117,0.00838
117.08,0.01042
117.16,0.00716
117.24,0.00472
117.32,0.00476
117.4,0.00774
117.48,0.01173
117.56,0.01278
117.64,0.00867
117.72,0.00542
117.8,0.00572
117.88,0.00983
117.96,0.01619
118.04,0.01581
118.12,0.0093
118.2,0.00737
118.28,0.01003
118.36,0.01097
118.44,0.00954
118.52,0.00665
118.6,0.00419
118.68,0.00411
118.76,0.00557
118.84,0.00514
118.92,0.00355
119,0.00325
119.08,0.0049
119.16,0.00845
119.24,0.0102
119.32,0.00882
119.4,0.00526
119.48,0.00373
119.56,0.00454
119.64,0.00739
119.72,0.00956
119.8,0.00777
119.88,0.00506
119.96,0.00503
119.99,0.00576