File: 2021/XRD/12021.ASC
  3.000      100
  3.020      119
  3.040      123
  3.060      110
  3.080       94
  3.100      121
  3.120      123
  3.140       94
  3.160      128
  3.180      125
  3.200      132
  3.220      117
  3.240      104
  3.260      119
  3.280      132
  3.300      119
  3.320      137
  3.340      104
  3.360       94
  3.380      112
  3.400      125
  3.420      104
  3.440       90
  3.460      121
  3.480      130
  3.500      119
  3.520      108
  3.540      114
  3.560      114
  3.580      108
  3.600      106
  3.620      119
  3.640      125
  3.660      117
  3.680      106
  3.700      128
  3.720      114
  3.740      135
  3.760      110
  3.780      119
  3.800      135
  3.820      119
  3.840      139
  3.860      130
  3.880      139
  3.900      108
  3.920      123
  3.940      123
  3.960      137
  3.980      121
  4.000      121
  4.020      164
  4.040      137
  4.060      132
  4.080      146
  4.100      151
  4.120      139
  4.140      149
  4.160      135
  4.180      121
  4.200      151
  4.220      142
  4.240      154
  4.260      154
  4.280      169
  4.300      188
  4.320      144
  4.340      156
  4.360      174
  4.380      166
  4.400      164
  4.420      161
  4.440      185
  4.460      177
  4.480      199
  4.500      182
  4.520      182
  4.540      185
  4.560      213
  4.580      185
  4.600      190
  4.620      207
  4.640      204
  4.660      240
  4.680      222
  4.700      216
  4.720      231
  4.740      269
  4.760      253
  4.780      237
  4.800      228
  4.820      222
  4.840      269
  4.860      240
  4.880      225
  4.900      246
  4.920      276
  4.940      234
  4.960      262
  4.980      259
  5.000      237
  5.020      243
  5.040      204
  5.060      196
  5.080      213
  5.100      216
  5.120      193
  5.140      202
  5.160      188
  5.180      188
  5.200      210
  5.220      222
  5.240      207
  5.260      216
  5.280      199
  5.300      219
  5.320      199
  5.340      169
  5.360      204
  5.380      182
  5.400      190
  5.420      169
  5.440      172
  5.460      174
  5.480      177
  5.500      164
  5.520      139
  5.540      169
  5.560      172
  5.580      166
  5.600      151
  5.620      154
  5.640      149
  5.660      149
  5.680      166
  5.700      151
  5.720      149
  5.740      161
  5.760      137
  5.780      151
  5.800      166
  5.820      142
  5.840      154
  5.860      142
  5.880      154
  5.900      137
  5.920      149
  5.940      149
  5.960      154
  5.980      177
  6.000      174
  6.020      169
  6.040      156
  6.060      154
  6.080      159
  6.100      151
  6.120      144
  6.140      159
  6.160      146
  6.180      154
  6.200      169
  6.220      154
  6.240      154
  6.260      149
  6.280      156
  6.300      164
  6.320      149
  6.340      154
  6.360      144
  6.380      154
  6.400      159
  6.420      154
  6.440      149
  6.460      180
  6.480      185
  6.500      169
  6.520      166
  6.540      156
  6.560      188
  6.580      185
  6.600      182
  6.620      177
  6.640      166
  6.660      164
  6.680      177
  6.700      164
  6.720      144
  6.740      185
  6.760      177
  6.780      164
  6.800      161
  6.820      164
  6.840      164
  6.860      174
  6.880      174
  6.900      166
  6.920      182
  6.940      174
  6.960      182
  6.980      188
  7.000      207
  7.020      169
  7.040      177
  7.060      182
  7.080      202
  7.100      210
  7.120      222
  7.140      196
  7.160      185
  7.180      199
  7.200      219
  7.220      202
  7.240      202
  7.260      177
  7.280      172
  7.300      196
  7.320      185
  7.340      156
  7.360      193
  7.380      177
  7.400      164
  7.420      149
  7.440      174
  7.460      149
  7.480      151
  7.500      159
  7.520      156
  7.540      161
  7.560      156
  7.580      154
  7.600      146
  7.620      144
  7.640      177
  7.660      169
  7.680      159
  7.700      164
  7.720      135
  7.740      139
  7.760      151
  7.780      154
  7.800      166
  7.820      169
  7.840      159
  7.860      164
  7.880      151
  7.900      146
  7.920      177
  7.940      142
  7.960      154
  7.980      182
  8.000      154
  8.020      156
  8.040      188
  8.060      151
  8.080      169
  8.100      159
  8.120      159
  8.140      151
  8.160      159
  8.180      154
  8.200      169
  8.220      154
  8.240      166
  8.260      139
  8.280      132
  8.300      146
  8.320      161
  8.340      146
  8.360      123
  8.380      130
  8.400      159
  8.420      154
  8.440      169
  8.460      144
  8.480      137
  8.500      144
  8.520      139
  8.540      154
  8.560      156
  8.580      151
  8.600      164
  8.620      180
  8.640      164
  8.660      151
  8.680      142
  8.700      142
  8.720      151
  8.740      172
  8.760      151
  8.780      137
  8.800      156
  8.820      161
  8.840      174
  8.860      164
  8.880      132
  8.900      169
  8.920      156
  8.940      164
  8.960      154
  8.980      142
  9.000      159
  9.020      132
  9.040      144
  9.060      144
  9.080      177
  9.100      137
  9.120      139
  9.140      156
  9.160      144
  9.180      185
  9.200      169
  9.220      180
  9.240      154
  9.260      202
  9.280      185
  9.300      182
  9.320      159
  9.340      182
  9.360      144
  9.380      135
  9.400      159
  9.420      159
  9.440      156
  9.460      164
  9.480      159
  9.500      161
  9.520      149
  9.540      159
  9.560      180
  9.580      172
  9.600      174
  9.620      161
  9.640      177
  9.660      177
  9.680      149
  9.700      174
  9.720      196
  9.740      185
  9.760      169
  9.780      164
  9.800      188
  9.820      177
  9.840      180
  9.860      182
  9.880      172
  9.900      182
  9.920      190
  9.940      174
  9.960      185
  9.980      193
 10.000      196
 10.020      166
 10.040      156
 10.060      164
 10.080      177
 10.100      154
 10.120      161
 10.140      156
 10.160      182
 10.180      177
 10.200      172
 10.220      174
 10.240      174
 10.260      161
 10.280      172
 10.300      156
 10.320      172
 10.340      182
 10.360      166
 10.380      202
 10.400      185
 10.420      182
 10.440      164
 10.460      202
 10.480      169
 10.500      159
 10.520      177
 10.540      144
 10.560      144
 10.580      151
 10.600      210
 10.620      174
 10.640      193
 10.660      169
 10.680      139
 10.700      199
 10.720      172
 10.740      210
 10.760      193
 10.780      219
 10.800      202
 10.820      169
 10.840      196
 10.860      219
 10.880      204
 10.900      188
 10.920      188
 10.940      180
 10.960      169
 10.980      174
 11.000      185
 11.020      210
 11.040      190
 11.060      207
 11.080      199
 11.100      199
 11.120      219
 11.140      196
 11.160      216
 11.180      213
 11.200      207
 11.220      188
 11.240      193
 11.260      202
 11.280      207
 11.300      193
 11.320      228
 11.340      202
 11.360      219
 11.380      213
 11.400      219
 11.420      193
 11.440      196
 11.460      213
 11.480      234
 11.500      225
 11.520      202
 11.540      213
 11.560      219
 11.580      202
 11.600      216
 11.620      231
 11.640      225
 11.660      207
 11.680      234
 11.700      222
 11.720      219
 11.740      243
 11.760      225
 11.780      228
 11.800      225
 11.820      219
 11.840      213
 11.860      240
 11.880      216
 11.900      213
 11.920      240
 11.940      256
 11.960      210
 11.980      234
 12.000      225
 12.020      262
 12.040      243
 12.060      225
 12.080      259
 12.100      210
 12.120      253
 12.140      213
 12.160      228
 12.180      253
 12.200      237
 12.220      231
 12.240      237
 12.260      262
 12.280      262
 12.300      219
 12.320      246
 12.340      231
 12.360      266
 12.380      246
 12.400      250
 12.420      228
 12.440      253
 12.460      234
 12.480      269
 12.500      269
 12.520      269
 12.540      225
 12.560      246
 12.580      243
 12.600      256
 12.620      246
 12.640      222
 12.660      250
 12.680      234
 12.700      256
 12.720      269
 12.740      253
 12.760      231
 12.780      262
 12.800      256
 12.820      231
 12.840      243
 12.860      240
 12.880      269
 12.900      253
 12.920      253
 12.940      246
 12.960      243
 12.980      262
 13.000      259
 13.020      237
 13.040      250
 13.060      228
 13.080      262
 13.100      276
 13.120      231
 13.140      246
 13.160      246
 13.180      259
 13.200      262
 13.220      237
 13.240      253
 13.260      256
 13.280      231
 13.300      246
 13.320      272
 13.340      240
 13.360      253
 13.380      256
 13.400      240
 13.420      240
 13.440      259
 13.460      234
 13.480      262
 13.500      246
 13.520      262
 13.540      243
 13.560      262
 13.580      250
 13.600      246
 13.620      231
 13.640      240
 13.660      279
 13.680      234
 13.700      262
 13.720      262
 13.740      259
 13.760      243
 13.780      225
 13.800      289
 13.820      256
 13.840      246
 13.860      228
 13.880      266
 13.900      237
 13.920      253
 13.940      250
 13.960      269
 13.980      228
 14.000      228
 14.020      240
 14.040      250
 14.060      243
 14.080      231
 14.100      246
 14.120      237
 14.140      231
 14.160      204
 14.180      243
 14.200      228
 14.220      246
 14.240      243
 14.260      225
 14.280      237
 14.300      228
 14.320      240
 14.340      228
 14.360      228
 14.380      228
 14.400      225
 14.420      210
 14.440      222
 14.460      213
 14.480      240
 14.500      234
 14.520      243
 14.540      216
 14.560      216
 14.580      231
 14.600      222
 14.620      231
 14.640      228
 14.660      237
 14.680      207
 14.700      210
 14.720      228
 14.740      199
 14.760      213
 14.780      234
 14.800      237
 14.820      207
 14.840      222
 14.860      199
 14.880      207
 14.900      225
 14.920      225
 14.940      188
 14.960      202
 14.980      234
 15.000      216
 15.020      207
 15.040      216
 15.060      202
 15.080      216
 15.100      213
 15.120      196
 15.140      210
 15.160      193
 15.180      213
 15.200      188
 15.220      199
 15.240      210
 15.260      188
 15.280      213
 15.300      199
 15.320      207
 15.340      188
 15.360      210
 15.380      166
 15.400      190
 15.420      169
 15.440      188
 15.460      185
 15.480      219
 15.500      182
 15.520      193
 15.540      222
 15.560      188
 15.580      213
 15.600      185
 15.620      151
 15.640      164
 15.660      164
 15.680      199
 15.700      193
 15.720      174
 15.740      180
 15.760      199
 15.780      188
 15.800      204
 15.820      174
 15.840      182
 15.860      204
 15.880      185
 15.900      185
 15.920      169
 15.940      172
 15.960      185
 15.980      172
 16.000      161
 16.020      177
 16.040      199
 16.060      199
 16.080      151
 16.100      156
 16.120      166
 16.140      169
 16.160      185
 16.180      156
 16.200      182
 16.220      164
 16.240      159
 16.260      188
 16.280      199
 16.300      193
 16.320      159
 16.340      137
 16.360      172
 16.380      180
 16.400      164
 16.420      161
 16.440      135
 16.460      146
 16.480      182
 16.500      146
 16.520      164
 16.540      161
 16.560      164
 16.580      149
 16.600      135
 16.620      151
 16.640      151
 16.660      166
 16.680      149
 16.700      174
 16.720      146
 16.740      137
 16.760      151
 16.780      130
 16.800      151
 16.820      142
 16.840      142
 16.860      139
 16.880      139
 16.900      149
 16.920      142
 16.940      159
 16.960      144
 16.980      149
 17.000      188
 17.020      154
 17.040      154
 17.060      154
 17.080      174
 17.100      130
 17.120      142
 17.140      174
 17.160      159
 17.180      174
 17.200      142
 17.220      154
 17.240      151
 17.260      144
 17.280      159
 17.300      135
 17.320      135
 17.340      132
 17.360      154
 17.380      151
 17.400      144
 17.420      154
 17.440      159
 17.460      137
 17.480      154
 17.500      156
 17.520      130
 17.540      137
 17.560      149
 17.580      154
 17.600      146
 17.620      142
 17.640      137
 17.660      130
 17.680      128
 17.700      137
 17.720      144
 17.740      125
 17.760      114
 17.780      156
 17.800      172
 17.820      125
 17.840      154
 17.860      121
 17.880      130
 17.900      130
 17.920      100
 17.940      128
 17.960      123
 17.980      144
 18.000      132
 18.020      123
 18.040      119
 18.060      117
 18.080      135
 18.100      144
 18.120      110
 18.140      106
 18.160      142
 18.180      119
 18.200      121
 18.220      123
 18.240      119
 18.260      128
 18.280      121
 18.300      130
 18.320      121
 18.340      135
 18.360      121
 18.380      139
 18.400      119
 18.420      119
 18.440      110
 18.460      121
 18.480       92
 18.500      130
 18.520      108
 18.540      121
 18.560      112
 18.580      123
 18.600      106
 18.620      119
 18.640      114
 18.660      123
 18.680      106
 18.700      130
 18.720      112
 18.740      102
 18.760       98
 18.780      114
 18.800       94
 18.820      110
 18.840      119
 18.860      117
 18.880      104
 18.900      112
 18.920       94
 18.940      117
 18.960      102
 18.980      121
 19.000      125
 19.020      117
 19.040      110
 19.060      108
 19.080      121
 19.100      112
 19.120      114
 19.140       98
 19.160       96
 19.180      106
 19.200      121
 19.220      106
 19.240       98
 19.260      102
 19.280      102
 19.300      100
 19.320      108
 19.340      112
 19.360      104
 19.380      108
 19.400      125
 19.420      119
 19.440      102
 19.460      119
 19.480      123
 19.500       85
 19.520      106
 19.540      114
 19.560      117
 19.580      104
 19.600       96
 19.620       96
 19.640       83
 19.660      119
 19.680      100
 19.700      121
 19.720      108
 19.740      110
 19.760      102
 19.780      106
 19.800      110
 19.820       83
 19.840       81
 19.860       98
 19.880      104
 19.900       94
 19.920       98
 19.940      114
 19.960       79
 19.980      106
 20.000      106
 20.020      132
 20.040      100
 20.060       90
 20.080       98
 20.100       94
 20.120       86
 20.140       88
 20.160       85
 20.180      106
 20.200       92
 20.220      110
 20.240      106
 20.260       94
 20.280       83
 20.300      108
 20.320       96
 20.340       94
 20.360       94
 20.380       86
 20.400       94
 20.420       90
 20.440      102
 20.460      100
 20.480      100
 20.500       96
 20.520      110
 20.540       90
 20.560       88
 20.580       83
 20.600       71
 20.620       98
 20.640       92
 20.660       81
 20.680       86
 20.700      100
 20.720       98
 20.740       96
 20.760       92
 20.780       88
 20.800       85
 20.820       83
 20.840       92
 20.860       85
 20.880      106
 20.900       85
 20.920       76
 20.940      104
 20.960       86
 20.980       86
 21.000       92
 21.020       81
 21.040       77
 21.060       92
 21.080      104
 21.100      104
 21.120       98
 21.140       79
 21.160       85
 21.180       88
 21.200       79
 21.220       88
 21.240       79
 21.260       74
 21.280       94
 21.300       88
 21.320       92
 21.340       96
 21.360       85
 21.380       90
 21.400       88
 21.420      104
 21.440       88
 21.460       88
 21.480       86
 21.500       90
 21.520       79
 21.540       86
 21.560       85
 21.580       88
 21.600       72
 21.620      104
 21.640       86
 21.660       92
 21.680       90
 21.700       85
 21.720       86
 21.740       90
 21.760       85
 21.780       92
 21.800       94
 21.820       83
 21.840       81
 21.860       83
 21.880       88
 21.900      100
 21.920       67
 21.940       67
 21.960       86
 21.980      102
 22.000       94
 22.020       88
 22.040       76
 22.060       71
 22.080       66
 22.100       92
 22.120       85
 22.140       76
 22.160       81
 22.180       85
 22.200       62
 22.220       79
 22.240       92
 22.260       59
 22.280       77
 22.300       76
 22.320       71
 22.340       96
 22.360       86
 22.380       86
 22.400       83
 22.420       50
 22.440       85
 22.460       71
 22.480       62
 22.500       88
 22.520       79
 22.540       72
 22.560       85
 22.580       72
 22.600       77
 22.620       77
 22.640       88
 22.660       90
 22.680       96
 22.700       71
 22.720       83
 22.740       62
 22.760       76
 22.780       81
 22.800       76
 22.820       74
 22.840       85
 22.860       66
 22.880       81
 22.900       72
 22.920       74
 22.940       66
 22.960       76
 22.980       64
 23.000       66
 23.020       74
 23.040       69
 23.060       66
 23.080       76
 23.100       77
 23.120       76
 23.140       62
 23.160       76
 23.180       71
 23.200       83
 23.220       77
 23.240       92
 23.260       94
 23.280       69
 23.300       83
 23.320       64
 23.340       86
 23.360       69
 23.380       86
 23.400       67
 23.420       71
 23.440       76
 23.460       69
 23.480       81
 23.500       86
 23.520       69
 23.540       67
 23.560       72
 23.580       69
 23.600       79
 23.620       79
 23.640       76
 23.660       59
 23.680       77
 23.700       77
 23.720       62
 23.740       79
 23.760       77
 23.780       67
 23.800       67
 23.820       77
 23.840       76
 23.860       67
 23.880       76
 23.900       67
 23.920       72
 23.940       55
 23.960       59
 23.980       62
 24.000       71
 24.020       64
 24.040       66
 24.060       79
 24.080       71
 24.100       72
 24.120       77
 24.140       76
 24.160       77
 24.180       76
 24.200       88
 24.220       85
 24.240       77
 24.260       85
 24.280       58
 24.300       71
 24.320       72
 24.340       62
 24.360       76
 24.380       81
 24.400       76
 24.420       74
 24.440       59
 24.460       67
 24.480       79
 24.500       59
 24.520       74
 24.540       74
 24.560       79
 24.580       72
 24.600       90
 24.620       83
 24.640       67
 24.660       69
 24.680       90
 24.700       76
 24.720       69
 24.740       76
 24.760       59
 24.780       85
 24.800       83
 24.820       71
 24.840       53
 24.860       71
 24.880       72
 24.900       86
 24.920       66
 24.940       86
 24.960       85
 24.980       72
 25.000       55
 25.020       92
 25.040       72
 25.060       72
 25.080       72
 25.100       67
 25.120       79
 25.140       67
 25.160       76
 25.180       74
 25.200       66
 25.220       62
 25.240       71
 25.260       79
 25.280       74
 25.300       71
 25.320       72
 25.340       81
 25.360       76
 25.380       72
 25.400       50
 25.420       67
 25.440       83
 25.460       79
 25.480       81
 25.500       66
 25.520       71
 25.540       92
 25.560       85
 25.580       83
 25.600       67
 25.620       77
 25.640       79
 25.660       71
 25.680       67
 25.700       76
 25.720       74
 25.740       74
 25.760       83
 25.780       62
 25.800       71
 25.820       62
 25.840       83
 25.860       83
 25.880       66
 25.900       66
 25.920       66
 25.940       66
 25.960       56
 25.980       71
 26.000       76
 26.020       64
 26.040       53
 26.060       81
 26.080       74
 26.100       72
 26.120       85
 26.140       86
 26.160       72
 26.180       81
 26.200       62
 26.220       72
 26.240       72
 26.260       85
 26.280       76
 26.300       72
 26.320       90
 26.340       71
 26.360       67
 26.380       85
 26.400       72
 26.420       79
 26.440       67
 26.460       76
 26.480       76
 26.500       74
 26.520       77
 26.540       67
 26.560       59
 26.580       71
 26.600       86
 26.620       88
 26.640       69
 26.660       85
 26.680       83
 26.700       83
 26.720       88
 26.740       83
 26.760       81
 26.780       71
 26.800       67
 26.820       77
 26.840       77
 26.860       85
 26.880       96
 26.900       67
 26.920       76
 26.940       74
 26.960       74
 26.980       74
 27.000       85
 27.020       83
 27.040       83
 27.060       74
 27.080       74
 27.100       79
 27.120       77
 27.140       76
 27.160       81
 27.180       79
 27.200       67
 27.220       85
 27.240       71
 27.260       79
 27.280       83
 27.300       83
 27.320       66
 27.340       72
 27.360       77
 27.380       77
 27.400       74
 27.420       66
 27.440       83
 27.460       62
 27.480       69
 27.500       79
 27.520      100
 27.540       86
 27.560       76
 27.580       85
 27.600       85
 27.620       86
 27.640       71
 27.660       92
 27.680       76
 27.700       77
 27.720       79
 27.740      102
 27.760       71
 27.780       77
 27.800       72
 27.820       77
 27.840       71
 27.860       77
 27.880       79
 27.900       77
 27.920       88
 27.940       85
 27.960       72
 27.980       67
 28.000       88
 28.020       86
 28.040       81
 28.060       86
 28.080       77
 28.100       94
 28.120       77
 28.140       72
 28.160       90
 28.180       74
 28.200       77
 28.220       90
 28.240       72
 28.260       71
 28.280       86
 28.300       76
 28.320       67
 28.340       77
 28.360       85
 28.380       72
 28.400       76
 28.420       94
 28.440       92
 28.460       79
 28.480       83
 28.500       85
 28.520       83
 28.540       77
 28.560       72
 28.580       74
 28.600       69
 28.620       59
 28.640       72
 28.660       81
 28.680       67
 28.700       86
 28.720       77
 28.740       76
 28.760       90
 28.780       72
 28.800       71
 28.820       71
 28.840       66
 28.860       72
 28.880       88
 28.900       85
 28.920       76
 28.940       76
 28.960       76
 28.980       72
 29.000       76
 29.020       74
 29.040       86
 29.060       86
 29.080       58
 29.100       72
 29.120       90
 29.140       76
 29.160       94
 29.180       90
 29.200       67
 29.220       79
 29.240       86
 29.260       66
 29.280       69
 29.300       64
 29.320       77
 29.340       64
 29.360       62
 29.380       72
 29.400       77
 29.420       71
 29.440       64
 29.460       79
 29.480       66
 29.500       67
 29.520       69
 29.540       74
 29.560       77
 29.580       86
 29.600       85
 29.620       96
 29.640       71
 29.660       69
 29.680       72
 29.700       86
 29.720       62
 29.740       77
 29.760       77
 29.780       67
 29.800       77
 29.820       86
 29.840       76
 29.860       83
 29.880       62
 29.900       67
 29.920       83
 29.940       74
 29.960       71
 29.980       58
 30.000       69