File: 2021/XRD/22021.ASC
  3.000      149
  3.020      146
  3.040      125
  3.060      106
  3.080      137
  3.100      130
  3.120      130
  3.140      132
  3.160      151
  3.180      139
  3.200      130
  3.220      135
  3.240      149
  3.260      135
  3.280      142
  3.300      154
  3.320      149
  3.340      146
  3.360      159
  3.380      128
  3.400      149
  3.420      135
  3.440      154
  3.460      149
  3.480      139
  3.500      130
  3.520      142
  3.540      142
  3.560      144
  3.580      159
  3.600      159
  3.620      149
  3.640      174
  3.660      161
  3.680      149
  3.700      130
  3.720      159
  3.740      154
  3.760      172
  3.780      164
  3.800      142
  3.820      139
  3.840      177
  3.860      169
  3.880      149
  3.900      154
  3.920      188
  3.940      172
  3.960      169
  3.980      159
  4.000      188
  4.020      149
  4.040      180
  4.060      196
  4.080      169
  4.100      139
  4.120      159
  4.140      177
  4.160      169
  4.180      156
  4.200      172
  4.220      185
  4.240      149
  4.260      154
  4.280      169
  4.300      169
  4.320      169
  4.340      166
  4.360      144
  4.380      161
  4.400      182
  4.420      174
  4.440      166
  4.460      174
  4.480      166
  4.500      174
  4.520      149
  4.540      166
  4.560      180
  4.580      156
  4.600      149
  4.620      164
  4.640      174
  4.660      166
  4.680      161
  4.700      164
  4.720      159
  4.740      151
  4.760      174
  4.780      172
  4.800      174
  4.820      132
  4.840      151
  4.860      139
  4.880      156
  4.900      149
  4.920      144
  4.940      154
  4.960      161
  4.980      144
  5.000      135
  5.020      142
  5.040      159
  5.060      154
  5.080      130
  5.100      142
  5.120      144
  5.140      151
  5.160      151
  5.180      130
  5.200      125
  5.220      154
  5.240      139
  5.260      130
  5.280      130
  5.300      128
  5.320      166
  5.340      149
  5.360      151
  5.380      135
  5.400      137
  5.420      132
  5.440      146
  5.460      151
  5.480      121
  5.500      135
  5.520      121
  5.540      135
  5.560      146
  5.580      151
  5.600      119
  5.620      132
  5.640      137
  5.660      137
  5.680      142
  5.700      130
  5.720      114
  5.740      121
  5.760      121
  5.780      130
  5.800      128
  5.820      114
  5.840      119
  5.860      149
  5.880      123
  5.900      142
  5.920       92
  5.940      123
  5.960      117
  5.980      125
  6.000      130
  6.020      108
  6.040      132
  6.060      144
  6.080      106
  6.100      130
  6.120      135
  6.140      117
  6.160      117
  6.180      112
  6.200      135
  6.220      146
  6.240      139
  6.260      130
  6.280      121
  6.300      128
  6.320      130
  6.340      128
  6.360      135
  6.380      123
  6.400      123
  6.420      106
  6.440      114
  6.460      132
  6.480      108
  6.500      114
  6.520      112
  6.540      125
  6.560      144
  6.580      130
  6.600      128
  6.620      108
  6.640      121
  6.660      128
  6.680       98
  6.700      108
  6.720      121
  6.740      125
  6.760      117
  6.780      128
  6.800      110
  6.820      112
  6.840      114
  6.860      135
  6.880      123
  6.900      137
  6.920      119
  6.940      106
  6.960      119
  6.980      128
  7.000      121
  7.020      108
  7.040      121
  7.060      104
  7.080      130
  7.100      123
  7.120      128
  7.140      130
  7.160      123
  7.180      117
  7.200      104
  7.220      102
  7.240      100
  7.260      108
  7.280      121
  7.300      114
  7.320      135
  7.340      106
  7.360      114
  7.380      123
  7.400       96
  7.420      112
  7.440      130
  7.460      106
  7.480      114
  7.500      114
  7.520      121
  7.540       92
  7.560      121
  7.580       92
  7.600      112
  7.620      135
  7.640      110
  7.660      121
  7.680      110
  7.700      121
  7.720      132
  7.740       98
  7.760       88
  7.780      102
  7.800      100
  7.820      121
  7.840       98
  7.860      121
  7.880      106
  7.900      104
  7.920       94
  7.940      110
  7.960      108
  7.980       83
  8.000      123
  8.020      106
  8.040      108
  8.060      108
  8.080      108
  8.100       90
  8.120       92
  8.140      121
  8.160      110
  8.180      102
  8.200      100
  8.220      121
  8.240      100
  8.260      102
  8.280       96
  8.300       96
  8.320       98
  8.340      102
  8.360       92
  8.380       88
  8.400       88
  8.420      100
  8.440       92
  8.460      106
  8.480       94
  8.500      102
  8.520       83
  8.540       92
  8.560       83
  8.580      104
  8.600       94
  8.620       79
  8.640       96
  8.660      112
  8.680       88
  8.700       94
  8.720       88
  8.740      102
  8.760      100
  8.780       90
  8.800      110
  8.820       92
  8.840       77
  8.860       92
  8.880       85
  8.900       85
  8.920       98
  8.940       96
  8.960       85
  8.980       76
  9.000       85
  9.020       90
  9.040       85
  9.060       83
  9.080       77
  9.100       77
  9.120       79
  9.140       69
  9.160       83
  9.180       94
  9.200       77
  9.220       76
  9.240       76
  9.260       96
  9.280       67
  9.300       88
  9.320       98
  9.340       79
  9.360       76
  9.380       72
  9.400       86
  9.420       55
  9.440       77
  9.460       79
  9.480       76
  9.500       92
  9.520       64
  9.540       77
  9.560       81
  9.580       77
  9.600       79
  9.620       86
  9.640       90
  9.660       83
  9.680       79
  9.700       83
  9.720       79
  9.740       67
  9.760       79
  9.780       76
  9.800       81
  9.820       66
  9.840       86
  9.860       69
  9.880       66
  9.900       62
  9.920       72
  9.940       62
  9.960       76
  9.980       76
 10.000       83
 10.020       71
 10.040       71
 10.060       59
 10.080       79
 10.100       67
 10.120       71
 10.140       61
 10.160       64
 10.180       62
 10.200       76
 10.220       56
 10.240       66
 10.260       55
 10.280       77
 10.300       53
 10.320       59
 10.340       71
 10.360       66
 10.380       77
 10.400       59
 10.420       66
 10.440       66
 10.460       62
 10.480       56
 10.500       53
 10.520       67
 10.540       66
 10.560       62
 10.580       62
 10.600       79
 10.620       53
 10.640       59
 10.660       79
 10.680       79
 10.700       59
 10.720       62
 10.740       67
 10.760       58
 10.780       58
 10.800       55
 10.820       56
 10.840       64
 10.860       48
 10.880       66
 10.900       67
 10.920       64
 10.940       72
 10.960       66
 10.980       53
 11.000       67
 11.020       44
 11.040       53
 11.060       53
 11.080       62
 11.100       55
 11.120       67
 11.140       46
 11.160       77
 11.180       61
 11.200       48
 11.220       52
 11.240       56
 11.260       59
 11.280       76
 11.300       59
 11.320       45
 11.340       59
 11.360       66
 11.380       61
 11.400       53
 11.420       53
 11.440       44
 11.460       50
 11.480       58
 11.500       56
 11.520       52
 11.540       67
 11.560       44
 11.580       49
 11.600       49
 11.620       45
 11.640       48
 11.660       42
 11.680       62
 11.700       53
 11.720       45
 11.740       59
 11.760       50
 11.780       50
 11.800       62
 11.820       72
 11.840       50
 11.860       58
 11.880       66
 11.900       58
 11.920       56
 11.940       59
 11.960       53
 11.980       50
 12.000       48
 12.020       58
 12.040       62
 12.060       56
 12.080       44
 12.100       62
 12.120       56
 12.140       55
 12.160       53
 12.180       53
 12.200       46
 12.220       53
 12.240       53
 12.260       53
 12.280       50
 12.300       46
 12.320       53
 12.340       48
 12.360       59
 12.380       45
 12.400       49
 12.420       44
 12.440       64
 12.460       37
 12.480       44
 12.500       48
 12.520       69
 12.540       48
 12.560       67
 12.580       38
 12.600       48
 12.620       50
 12.640       36
 12.660       44
 12.680       59
 12.700       53
 12.720       53
 12.740       32
 12.760       48
 12.780       53
 12.800       53
 12.820       55
 12.840       40
 12.860       55
 12.880       48
 12.900       32
 12.920       45
 12.940       42
 12.960       42
 12.980       55
 13.000       50
 13.020       31
 13.040       56
 13.060       34
 13.080       38
 13.100       37
 13.120       50
 13.140       50
 13.160       48
 13.180       44
 13.200       48
 13.220       53
 13.240       38
 13.260       40
 13.280       48
 13.300       44
 13.320       46
 13.340       53
 13.360       44
 13.380       46
 13.400       38
 13.420       50
 13.440       41
 13.460       38
 13.480       40
 13.500       44
 13.520       48
 13.540       56
 13.560       32
 13.580       46
 13.600       41
 13.620       42
 13.640       49
 13.660       38
 13.680       58
 13.700       42
 13.720       44
 13.740       42
 13.760       56
 13.780       44
 13.800       62
 13.820       48
 13.840       35
 13.860       48
 13.880       50
 13.900       48
 13.920       50
 13.940       50
 13.960       44
 13.980       34
 14.000       38
 14.020       44
 14.040       59
 14.060       45
 14.080       42
 14.100       40
 14.120       45
 14.140       38
 14.160       36
 14.180       31
 14.200       48
 14.220       25
 14.240       44
 14.260       45
 14.280       46
 14.300       46
 14.320       42
 14.340       46
 14.360       36
 14.380       36
 14.400       38
 14.420       48
 14.440       38
 14.460       40
 14.480       45
 14.500       38
 14.520       37
 14.540       30
 14.560       38
 14.580       32
 14.600       42
 14.620       41
 14.640       32
 14.660       38
 14.680       41
 14.700       49
 14.720       37
 14.740       44
 14.760       38
 14.780       42
 14.800       41
 14.820       45
 14.840       35
 14.860       29
 14.880       27
 14.900       35
 14.920       36
 14.940       45
 14.960       44
 14.980       40
 15.000       40
 15.020       53
 15.040       38
 15.060       56
 15.080       41
 15.100       59
 15.120       40
 15.140       38
 15.160       36
 15.180       32
 15.200       41
 15.220       44
 15.240       37
 15.260       45
 15.280       36
 15.300       40
 15.320       36
 15.340       44
 15.360       30
 15.380       34
 15.400       38
 15.420       44
 15.440       23
 15.460       42
 15.480       45
 15.500       32
 15.520       38
 15.540       41
 15.560       35
 15.580       53
 15.600       28
 15.620       32
 15.640       32
 15.660       52
 15.680       32
 15.700       32
 15.720       42
 15.740       44
 15.760       38
 15.780       49
 15.800       44
 15.820       28
 15.840       46
 15.860       38
 15.880       34
 15.900       44
 15.920       41
 15.940       32
 15.960       37
 15.980       35
 16.000       35
 16.020       44
 16.040       30
 16.060       44
 16.080       46
 16.100       49
 16.120       37
 16.140       49
 16.160       44
 16.180       48
 16.200       38
 16.220       31
 16.240       34
 16.260       38
 16.280       38
 16.300       35
 16.320       30
 16.340       40
 16.360       37
 16.380       32
 16.400       26
 16.420       35
 16.440       38
 16.460       48
 16.480       49
 16.500       40
 16.520       41
 16.540       34
 16.560       31
 16.580       32
 16.600       36
 16.620       32
 16.640       34
 16.660       37
 16.680       32
 16.700       28
 16.720       46
 16.740       48
 16.760       42
 16.780       34
 16.800       38
 16.820       31
 16.840       45
 16.860       40
 16.880       36
 16.900       46
 16.920       30
 16.940       32
 16.960       38
 16.980       38
 17.000       31
 17.020       37
 17.040       37
 17.060       44
 17.080       32
 17.100       53
 17.120       42
 17.140       37
 17.160       40
 17.180       41
 17.200       38
 17.220       37
 17.240       32
 17.260       38
 17.280       32
 17.300       40
 17.320       38
 17.340       34
 17.360       48
 17.380       38
 17.400       35
 17.420       35
 17.440       36
 17.460       32
 17.480       40
 17.500       44
 17.520       34
 17.540       36
 17.560       35
 17.580       50
 17.600       42
 17.620       38
 17.640       41
 17.660       52
 17.680       32
 17.700       36
 17.720       49
 17.740       44
 17.760       32
 17.780       31
 17.800       26
 17.820       29
 17.840       32
 17.860       38
 17.880       41
 17.900       48
 17.920       30
 17.940       31
 17.960       50
 17.980       31
 18.000       34
 18.020       30
 18.040       28
 18.060       44
 18.080       30
 18.100       42
 18.120       49
 18.140       36
 18.160       41
 18.180       38
 18.200       32
 18.220       56
 18.240       32
 18.260       34
 18.280       32
 18.300       44
 18.320       38
 18.340       32
 18.360       35
 18.380       37
 18.400       41
 18.420       38
 18.440       44
 18.460       46
 18.480       38
 18.500       32
 18.520       32
 18.540       30
 18.560       35
 18.580       36
 18.600       36
 18.620       36
 18.640       46
 18.660       28
 18.680       37
 18.700       46
 18.720       49
 18.740       29
 18.760       48
 18.780       46
 18.800       28
 18.820       37
 18.840       49
 18.860       41
 18.880       41
 18.900       40
 18.920       40
 18.940       49
 18.960       32
 18.980       50
 19.000       45
 19.020       49
 19.040       37
 19.060       38
 19.080       32
 19.100       32
 19.120       53
 19.140       35
 19.160       45
 19.180       42
 19.200       36
 19.220       48
 19.240       48
 19.260       48
 19.280       32
 19.300       37
 19.320       34
 19.340       42
 19.360       42
 19.380       52
 19.400       44
 19.420       44
 19.440       46
 19.460       36
 19.480       44
 19.500       41
 19.520       45
 19.540       41
 19.560       52
 19.580       37
 19.600       38
 19.620       36
 19.640       48
 19.660       35
 19.680       38
 19.700       45
 19.720       32
 19.740       41
 19.760       42
 19.780       48
 19.800       50
 19.820       40
 19.840       46
 19.860       59
 19.880       61
 19.900       37
 19.920       48
 19.940       44
 19.960       50
 19.980       48
 20.000       46
 20.020       32
 20.040       34
 20.060       42
 20.080       55
 20.100       46
 20.120       38
 20.140       36
 20.160       44
 20.180       37
 20.200       50
 20.220       46
 20.240       45
 20.260       44
 20.280       58
 20.300       38
 20.320       49
 20.340       44
 20.360       50
 20.380       40
 20.400       46
 20.420       50
 20.440       34
 20.460       38
 20.480       48
 20.500       37
 20.520       38
 20.540       38
 20.560       41
 20.580       42
 20.600       40
 20.620       42
 20.640       31
 20.660       45
 20.680       49
 20.700       48
 20.720       32
 20.740       38
 20.760       34
 20.780       55
 20.800       37
 20.820       41
 20.840       48
 20.860       45
 20.880       38
 20.900       50
 20.920       55
 20.940       32
 20.960       40
 20.980       44
 21.000       50
 21.020       41
 21.040       32
 21.060       48
 21.080       36
 21.100       35
 21.120       59
 21.140       50
 21.160       35
 21.180       37
 21.200       44
 21.220       44
 21.240       41
 21.260       44
 21.280       44
 21.300       56
 21.320       44
 21.340       48
 21.360       38
 21.380       48
 21.400       42
 21.420       32
 21.440       40
 21.460       38
 21.480       45
 21.500       38
 21.520       35
 21.540       44
 21.560       38
 21.580       48
 21.600       50
 21.620       44
 21.640       40
 21.660       50
 21.680       45
 21.700       48
 21.720       46
 21.740       31
 21.760       48
 21.780       41
 21.800       48
 21.820       50
 21.840       50
 21.860       48
 21.880       50
 21.900       50
 21.920       36
 21.940       53
 21.960       40
 21.980       46
 22.000       49
 22.020       46
 22.040       37
 22.060       44
 22.080       35
 22.100       48
 22.120       36
 22.140       48
 22.160       46
 22.180       40
 22.200       59
 22.220       59
 22.240       52
 22.260       41
 22.280       46
 22.300       38
 22.320       48
 22.340       40
 22.360       45
 22.380       48
 22.400       29
 22.420       44
 22.440       45
 22.460       48
 22.480       44
 22.500       61
 22.520       50
 22.540       44
 22.560       44
 22.580       44
 22.600       59
 22.620       50
 22.640       36
 22.660       50
 22.680       46
 22.700       38
 22.720       53
 22.740       52
 22.760       55
 22.780       50
 22.800       36
 22.820       44
 22.840       53
 22.860       48
 22.880       45
 22.900       40
 22.920       42
 22.940       62
 22.960       49
 22.980       44
 23.000       48
 23.020       44
 23.040       55
 23.060       31
 23.080       62
 23.100       48
 23.120       42
 23.140       49
 23.160       48
 23.180       53
 23.200       56
 23.220       56
 23.240       50
 23.260       50
 23.280       37
 23.300       53
 23.320       42
 23.340       44
 23.360       61
 23.380       41
 23.400       55
 23.420       53
 23.440       55
 23.460       48
 23.480       55
 23.500       50
 23.520       40
 23.540       41
 23.560       62
 23.580       59
 23.600       67
 23.620       53
 23.640       50
 23.660       42
 23.680       52
 23.700       42
 23.720       56
 23.740       56
 23.760       59
 23.780       67
 23.800       41
 23.820       59
 23.840       49
 23.860       59
 23.880       49
 23.900       44
 23.920       44
 23.940       40
 23.960       45
 23.980       32
 24.000       53
 24.020       62
 24.040       56
 24.060       42
 24.080       42
 24.100       44
 24.120       55
 24.140       38
 24.160       44
 24.180       61
 24.200       48
 24.220       48
 24.240       48
 24.260       44
 24.280       41
 24.300       49
 24.320       46
 24.340       48
 24.360       58
 24.380       55
 24.400       44
 24.420       61
 24.440       53
 24.460       61
 24.480       53
 24.500       56
 24.520       59
 24.540       44
 24.560       59
 24.580       52
 24.600       62
 24.620       56
 24.640       56
 24.660       48
 24.680       56
 24.700       50
 24.720       50
 24.740       48
 24.760       49
 24.780       53
 24.800       52
 24.820       71
 24.840       62
 24.860       44
 24.880       67
 24.900       62
 24.920       42
 24.940       50
 24.960       66
 24.980       42
 25.000       67
 25.020       69
 25.040       56
 25.060       61
 25.080       62
 25.100       71
 25.120       71
 25.140       46
 25.160       49
 25.180       48
 25.200       48
 25.220       45
 25.240       37
 25.260       37
 25.280       46
 25.300       55
 25.320       56
 25.340       44
 25.360       49
 25.380       53
 25.400       56
 25.420       53
 25.440       62
 25.460       55
 25.480       45
 25.500       62
 25.520       53
 25.540       59
 25.560       56
 25.580       61
 25.600       50
 25.620       59
 25.640       59
 25.660       64
 25.680       71
 25.700       69
 25.720       67
 25.740       59
 25.760       59
 25.780       69
 25.800       59
 25.820       66
 25.840       66
 25.860       53
 25.880       56
 25.900       56
 25.920       59
 25.940       55
 25.960       37
 25.980       77
 26.000       56
 26.020       59
 26.040       52
 26.060       46
 26.080       66
 26.100       46
 26.120       55
 26.140       56
 26.160       61
 26.180       41
 26.200       52
 26.220       67
 26.240       59
 26.260       53
 26.280       46
 26.300       52
 26.320       59
 26.340       69
 26.360       56
 26.380       66
 26.400       58
 26.420       58
 26.440       69
 26.460       61
 26.480       64
 26.500       53
 26.520       50
 26.540       50
 26.560       59
 26.580       56
 26.600       58
 26.620       56
 26.640       67
 26.660       66
 26.680       52
 26.700       52
 26.720       72
 26.740       59
 26.760       69
 26.780       61
 26.800       56
 26.820       66
 26.840       50
 26.860       52
 26.880       69
 26.900       77
 26.920       53
 26.940       62
 26.960       55
 26.980       44
 27.000       50
 27.020       61
 27.040       56
 27.060       53
 27.080       76
 27.100       56
 27.120       48
 27.140       74
 27.160       50
 27.180       71
 27.200       62
 27.220       61
 27.240       50
 27.260       55
 27.280       66
 27.300       66
 27.320       55
 27.340       50
 27.360       53
 27.380       55
 27.400       56
 27.420       62
 27.440       67
 27.460       67
 27.480       58
 27.500       76
 27.520       67
 27.540       58
 27.560       66
 27.580       50
 27.600       67
 27.620       72
 27.640       71
 27.660       67
 27.680       64
 27.700       48
 27.720       66
 27.740       50
 27.760       66
 27.780       56
 27.800       69
 27.820       72
 27.840       66
 27.860       66
 27.880       55
 27.900       71
 27.920       58
 27.940       53
 27.960       59
 27.980       69
 28.000       62
 28.020       61
 28.040       58
 28.060       45
 28.080       56
 28.100       77
 28.120       48
 28.140       72
 28.160       61
 28.180       52
 28.200       66
 28.220       44
 28.240       56
 28.260       56
 28.280       52
 28.300       56
 28.320       76
 28.340       72
 28.360       50
 28.380       69
 28.400       53
 28.420       66
 28.440       76
 28.460       67
 28.480       77
 28.500       59
 28.520       48
 28.540       71
 28.560       62
 28.580       66
 28.600       56
 28.620       55
 28.640       62
 28.660       66
 28.680       67
 28.700       69
 28.720       53
 28.740       66
 28.760       66
 28.780       67
 28.800       66
 28.820       69
 28.840       52
 28.860       69
 28.880       56
 28.900       56
 28.920       77
 28.940       67
 28.960       56
 28.980       67
 29.000       67
 29.020       71
 29.040       64
 29.060       59
 29.080       56
 29.100       71
 29.120       67
 29.140       58
 29.160       71
 29.180       59
 29.200       62
 29.220       56
 29.240       56
 29.260       52
 29.280       62
 29.300       48
 29.320       55
 29.340       56
 29.360       48
 29.380       62
 29.400       52
 29.420       61
 29.440       62
 29.460       66
 29.480       52
 29.500       59
 29.520       59
 29.540       50
 29.560       69
 29.580       69
 29.600       59
 29.620       56
 29.640       49
 29.660       49
 29.680       58
 29.700       67
 29.720       62
 29.740       56
 29.760       66
 29.780       48
 29.800       72
 29.820       64
 29.840       56
 29.860       44
 29.880       67
 29.900       61
 29.920       55
 29.940       69
 29.960       67
 29.980       59
 30.000       48