File: 2021/XRD/32021.ASC
  3.000      164
  3.020      174
  3.040      177
  3.060      177
  3.080      164
  3.100      164
  3.120      156
  3.140      182
  3.160      159
  3.180      177
  3.200      177
  3.220      174
  3.240      180
  3.260      172
  3.280      174
  3.300      193
  3.320      151
  3.340      193
  3.360      164
  3.380      207
  3.400      182
  3.420      177
  3.440      207
  3.460      182
  3.480      182
  3.500      185
  3.520      177
  3.540      188
  3.560      185
  3.580      182
  3.600      204
  3.620      202
  3.640      213
  3.660      216
  3.680      216
  3.700      199
  3.720      243
  3.740      219
  3.760      185
  3.780      225
  3.800      228
  3.820      228
  3.840      234
  3.860      240
  3.880      262
  3.900      276
  3.920      279
  3.940      243
  3.960      286
  3.980      299
  4.000      289
  4.020      306
  4.040      331
  4.060      282
  4.080      339
  4.100      299
  4.120      365
  4.140      388
  4.160      357
  4.180      392
  4.200      396
  4.220      396
  4.240      408
  4.260      424
  4.280      488
  4.300      520
  4.320      480
  4.340      511
  4.360      548
  4.380      571
  4.400      645
  4.420      615
  4.440      718
  4.460      708
  4.480      734
  4.500      847
  4.520      949
  4.540     1005
  4.560     1030
  4.580     1149
  4.600     1274
  4.620     1239
  4.640     1429
  4.660     1376
  4.680     1310
  4.700     1136
  4.720      918
  4.740      762
  4.760      630
  4.780      543
  4.800      458
  4.820      441
  4.840      376
  4.860      369
  4.880      331
  4.900      350
  4.920      339
  4.940      306
  4.960      320
  4.980      296
  5.000      266
  5.020      289
  5.040      296
  5.060      276
  5.080      269
  5.100      282
  5.120      266
  5.140      266
  5.160      259
  5.180      234
  5.200      246
  5.220      250
  5.240      228
  5.260      243
  5.280      243
  5.300      253
  5.320      262
  5.340      256
  5.360      259
  5.380      246
  5.400      246
  5.420      240
  5.440      250
  5.460      243
  5.480      228
  5.500      219
  5.520      240
  5.540      210
  5.560      219
  5.580      231
  5.600      222
  5.620      225
  5.640      219
  5.660      231
  5.680      225
  5.700      231
  5.720      225
  5.740      243
  5.760      253
  5.780      246
  5.800      253
  5.820      240
  5.840      219
  5.860      207
  5.880      222
  5.900      228
  5.920      222
  5.940      237
  5.960      207
  5.980      240
  6.000      225
  6.020      222
  6.040      256
  6.060      243
  6.080      240
  6.100      222
  6.120      228
  6.140      246
  6.160      276
  6.180      276
  6.200      296
  6.220      292
  6.240      328
  6.260      269
  6.280      289
  6.300      339
  6.320      320
  6.340      372
  6.360      342
  6.380      369
  6.400      408
  6.420      428
  6.440      471
  6.460      458
  6.480      529
  6.500      524
  6.520      543
  6.540      562
  6.560      605
  6.580      488
  6.600      416
  6.620      420
  6.640      342
  6.660      328
  6.680      296
  6.700      256
  6.720      266
  6.740      292
  6.760      259
  6.780      259
  6.800      276
  6.820      246
  6.840      250
  6.860      246
  6.880      222
  6.900      256
  6.920      243
  6.940      253
  6.960      269
  6.980      234
  7.000      231
  7.020      246
  7.040      253
  7.060      240
  7.080      237
  7.100      237
  7.120      237
  7.140      204
  7.160      225
  7.180      246
  7.200      196
  7.220      225
  7.240      216
  7.260      234
  7.280      213
  7.300      222
  7.320      259
  7.340      240
  7.360      246
  7.380      237
  7.400      259
  7.420      222
  7.440      219
  7.460      231
  7.480      228
  7.500      240
  7.520      231
  7.540      243
  7.560      219
  7.580      246
  7.600      240
  7.620      231
  7.640      199
  7.660      256
  7.680      246
  7.700      237
  7.720      228
  7.740      256
  7.760      262
  7.780      276
  7.800      279
  7.820      282
  7.840      296
  7.860      342
  7.880      339
  7.900      369
  7.920      361
  7.940      392
  7.960      400
  7.980      404
  8.000      376
  8.020      392
  8.040      361
  8.060      282
  8.080      279
  8.100      234
  8.120      240
  8.140      202
  8.160      196
  8.180      196
  8.200      207
  8.220      182
  8.240      199
  8.260      188
  8.280      188
  8.300      166
  8.320      164
  8.340      144
  8.360      182
  8.380      188
  8.400      144
  8.420      154
  8.440      169
  8.460      169
  8.480      151
  8.500      159
  8.520      139
  8.540      159
  8.560      161
  8.580      142
  8.600      172
  8.620      180
  8.640      166
  8.660      164
  8.680      156
  8.700      144
  8.720      172
  8.740      142
  8.760      149
  8.780      161
  8.800      146
  8.820      161
  8.840      151
  8.860      177
  8.880      142
  8.900      169
  8.920      159
  8.940      182
  8.960      190
  8.980      177
  9.000      161
  9.020      196
  9.040      182
  9.060      225
  9.080      185
  9.100      204
  9.120      225
  9.140      225
  9.160      237
  9.180      256
  9.200      276
  9.220      266
  9.240      243
  9.260      237
  9.280      207
  9.300      202
  9.320      182
  9.340      169
  9.360      142
  9.380      144
  9.400      132
  9.420      132
  9.440      135
  9.460      110
  9.480      130
  9.500      123
  9.520      121
  9.540      125
  9.560      114
  9.580      108
  9.600      128
  9.620      110
  9.640      119
  9.660      128
  9.680      123
  9.700      130
  9.720      119
  9.740      110
  9.760      137
  9.780      102
  9.800      137
  9.820      112
  9.840      123
  9.860      112
  9.880      110
  9.900      100
  9.920      119
  9.940      125
  9.960       98
  9.980      132
 10.000      125
 10.020      108
 10.040      102
 10.060      125
 10.080      114
 10.100      130
 10.120       94
 10.140      128
 10.160      130
 10.180      128
 10.200      132
 10.220      125
 10.240      114
 10.260      144
 10.280      130
 10.300      139
 10.320      139
 10.340       86
 10.360      123
 10.380      123
 10.400      130
 10.420       92
 10.440       88
 10.460      121
 10.480       98
 10.500       90
 10.520      128
 10.540      121
 10.560      114
 10.580       98
 10.600       98
 10.620      123
 10.640       94
 10.660      104
 10.680       96
 10.700      102
 10.720       83
 10.740       86
 10.760      104
 10.780       92
 10.800       90
 10.820      106
 10.840       81
 10.860       96
 10.880       96
 10.900      121
 10.920      119
 10.940       94
 10.960      100
 10.980      119
 11.000       98
 11.020      119
 11.040      117
 11.060       98
 11.080      108
 11.100      128
 11.120      130
 11.140      108
 11.160      106
 11.180      159
 11.200      159
 11.220      156
 11.240      146
 11.260      159
 11.280      144
 11.300      139
 11.320      137
 11.340      121
 11.360      130
 11.380      112
 11.400      108
 11.420      104
 11.440      100
 11.460       96
 11.480       85
 11.500       88
 11.520      108
 11.540      108
 11.560       98
 11.580       86
 11.600       96
 11.620       90
 11.640      100
 11.660      100
 11.680       92
 11.700       86
 11.720       92
 11.740       83
 11.760       79
 11.780       92
 11.800       98
 11.820       92
 11.840       77
 11.860       90
 11.880       92
 11.900      110
 11.920       62
 11.940       94
 11.960       72
 11.980       85
 12.000       88
 12.020      102
 12.040       98
 12.060       86
 12.080       96
 12.100       83
 12.120       86
 12.140       77
 12.160       88
 12.180       90
 12.200       86
 12.220       94
 12.240       77
 12.260       85
 12.280       77
 12.300       81
 12.320       85
 12.340       90
 12.360       88
 12.380       88
 12.400       90
 12.420       83
 12.440       86
 12.460       72
 12.480       85
 12.500       94
 12.520       96
 12.540       86
 12.560       90
 12.580       72
 12.600       79
 12.620       86
 12.640       83
 12.660       92
 12.680       86
 12.700       76
 12.720       74
 12.740      100
 12.760       77
 12.780       71
 12.800       98
 12.820       71
 12.840      110
 12.860       86
 12.880       76
 12.900       77
 12.920       74
 12.940       94
 12.960       79
 12.980       79
 13.000       86
 13.020       85
 13.040       77
 13.060       79
 13.080       92
 13.100       85
 13.120       85
 13.140       77
 13.160       85
 13.180       88
 13.200       79
 13.220       86
 13.240      100
 13.260       77
 13.280       86
 13.300       85
 13.320       96
 13.340       83
 13.360       85
 13.380       77
 13.400       76
 13.420       66
 13.440       86
 13.460       94
 13.480       83
 13.500       71
 13.520       81
 13.540       81
 13.560       81
 13.580       83
 13.600      108
 13.620      110
 13.640      102
 13.660      117
 13.680      102
 13.700       92
 13.720      104
 13.740      128
 13.760      121
 13.780      114
 13.800      121
 13.820      119
 13.840      130
 13.860       98
 13.880      102
 13.900       96
 13.920       88
 13.940       72
 13.960       72
 13.980       83
 14.000       88
 14.020       79
 14.040       83
 14.060       77
 14.080       76
 14.100       88
 14.120       79
 14.140       69
 14.160       76
 14.180       85
 14.200       74
 14.220       67
 14.240       69
 14.260       64
 14.280       85
 14.300       71
 14.320       86
 14.340       98
 14.360       77
 14.380       83
 14.400       71
 14.420       83
 14.440       71
 14.460       98
 14.480       83
 14.500       76
 14.520       66
 14.540       86
 14.560       83
 14.580       64
 14.600       94
 14.620       67
 14.640       67
 14.660       71
 14.680       90
 14.700       71
 14.720       66
 14.740       74
 14.760       67
 14.780       83
 14.800       62
 14.820       69
 14.840       77
 14.860       85
 14.880       56
 14.900       72
 14.920       86
 14.940       64
 14.960       77
 14.980       74
 15.000       59
 15.020       85
 15.040       79
 15.060       77
 15.080       52
 15.100       67
 15.120       85
 15.140       85
 15.160       74
 15.180       72
 15.200       64
 15.220       72
 15.240       72
 15.260       69
 15.280       59
 15.300       62
 15.320       59
 15.340       76
 15.360       64
 15.380       59
 15.400       64
 15.420       83
 15.440       72
 15.460       72
 15.480       67
 15.500       83
 15.520       74
 15.540       88
 15.560       77
 15.580       71
 15.600       67
 15.620       77
 15.640       67
 15.660       71
 15.680       71
 15.700       81
 15.720       72
 15.740       59
 15.760      108
 15.780       90
 15.800       86
 15.820       69
 15.840       69
 15.860       56
 15.880       81
 15.900       83
 15.920       98
 15.940       71
 15.960       90
 15.980       77
 16.000       66
 16.020       71
 16.040       77
 16.060       76
 16.080       77
 16.100       61
 16.120       76
 16.140       77
 16.160       77
 16.180       71
 16.200       71
 16.220       76
 16.240       67
 16.260       67
 16.280       74
 16.300       66
 16.320       86
 16.340       62
 16.360       77
 16.380       71
 16.400       77
 16.420       76
 16.440       79
 16.460       58
 16.480       56
 16.500       71
 16.520       67
 16.540       77
 16.560       71
 16.580       67
 16.600       61
 16.620       79
 16.640       71
 16.660       88
 16.680       79
 16.700       76
 16.720       66
 16.740       79
 16.760       72
 16.780       64
 16.800       62
 16.820       81
 16.840       69
 16.860       85
 16.880       62
 16.900       83
 16.920       85
 16.940       67
 16.960       86
 16.980       81
 17.000       61
 17.020       72
 17.040       79
 17.060       71
 17.080       50
 17.100       64
 17.120       85
 17.140       64
 17.160       74
 17.180       67
 17.200       71
 17.220       76
 17.240       71
 17.260       71
 17.280       79
 17.300       85
 17.320       71
 17.340       71
 17.360       67
 17.380       76
 17.400       62
 17.420       77
 17.440       71
 17.460       77
 17.480       69
 17.500       88
 17.520       79
 17.540       90
 17.560       79
 17.580       74
 17.600       74
 17.620       66
 17.640       83
 17.660       72
 17.680       85
 17.700       77
 17.720       71
 17.740       81
 17.760       76
 17.780       83
 17.800       71
 17.820       49
 17.840       66
 17.860       85
 17.880       71
 17.900       85
 17.920       86
 17.940       77
 17.960       61
 17.980       77
 18.000       94
 18.020       71
 18.040       62
 18.060       81
 18.080       90
 18.100       98
 18.120       86
 18.140       62
 18.160       77
 18.180       76
 18.200       92
 18.220       92
 18.240       62
 18.260       76
 18.280       92
 18.300       71
 18.320       85
 18.340       83
 18.360       83
 18.380       67
 18.400       85
 18.420       88
 18.440       79
 18.460       83
 18.480       71
 18.500       76
 18.520       72
 18.540       77
 18.560       86
 18.580       77
 18.600       67
 18.620       66
 18.640       72
 18.660       85
 18.680       79
 18.700       56
 18.720       79
 18.740       62
 18.760       62
 18.780       67
 18.800       77
 18.820       72
 18.840       96
 18.860      102
 18.880       79
 18.900       67
 18.920       94
 18.940       71
 18.960       76
 18.980       83
 19.000       85
 19.020       88
 19.040       88
 19.060       83
 19.080       86
 19.100       88
 19.120       71
 19.140       85
 19.160       71
 19.180       66
 19.200       74
 19.220       83
 19.240       79
 19.260       79
 19.280       85
 19.300       86
 19.320       62
 19.340       74
 19.360       79
 19.380       86
 19.400       76
 19.420       81
 19.440       92
 19.460       77
 19.480       79
 19.500       81
 19.520       88
 19.540      102
 19.560       86
 19.580      100
 19.600       67
 19.620       76
 19.640       56
 19.660       86
 19.680       94
 19.700       77
 19.720       81
 19.740       88
 19.760       83
 19.780       72
 19.800       85
 19.820       86
 19.840       88
 19.860       90
 19.880       81
 19.900       79
 19.920       90
 19.940      102
 19.960       81
 19.980       71
 20.000       79
 20.020       88
 20.040       90
 20.060       90
 20.080       83
 20.100       74
 20.120       83
 20.140       76
 20.160       76
 20.180       77
 20.200       85
 20.220       96
 20.240       85
 20.260       86
 20.280       83
 20.300      104
 20.320       71
 20.340       98
 20.360       81
 20.380       83
 20.400      104
 20.420       77
 20.440      104
 20.460       79
 20.480       94
 20.500       98
 20.520       83
 20.540       94
 20.560       94
 20.580       85
 20.600       94
 20.620       90
 20.640       98
 20.660       83
 20.680       90
 20.700       90
 20.720       96
 20.740       81
 20.760       81
 20.780       56
 20.800      100
 20.820       96
 20.840      100
 20.860       76
 20.880       88
 20.900       96
 20.920       83
 20.940       86
 20.960       81
 20.980       88
 21.000       92
 21.020       96
 21.040       85
 21.060       86
 21.080       85
 21.100      108
 21.120       86
 21.140       85
 21.160       88
 21.180       85
 21.200       72
 21.220       90
 21.240       72
 21.260       88
 21.280       72
 21.300       98
 21.320       96
 21.340       74
 21.360       81
 21.380       76
 21.400       71
 21.420       79
 21.440       90
 21.460       66
 21.480       81
 21.500       81
 21.520       83
 21.540       76
 21.560       71
 21.580       76
 21.600       96
 21.620       86
 21.640       96
 21.660       94
 21.680       88
 21.700       76
 21.720       72
 21.740       90
 21.760       72
 21.780       77
 21.800       85
 21.820       88
 21.840       79
 21.860       94
 21.880       88
 21.900       76
 21.920       88
 21.940       90
 21.960       77
 21.980       88
 22.000       92
 22.020       96
 22.040       86
 22.060       94
 22.080       72
 22.100       83
 22.120       92
 22.140       86
 22.160       61
 22.180       76
 22.200       77
 22.220       72
 22.240       86
 22.260       69
 22.280       62
 22.300       88
 22.320       79
 22.340       96
 22.360       86
 22.380       88
 22.400       64
 22.420       98
 22.440       92
 22.460       94
 22.480       86
 22.500       67
 22.520      102
 22.540       86
 22.560       90
 22.580       88
 22.600       92
 22.620      100
 22.640       83
 22.660       77
 22.680       98
 22.700       71
 22.720       88
 22.740       72
 22.760       92
 22.780       71
 22.800       77
 22.820       74
 22.840       79
 22.860       74
 22.880       79
 22.900       72
 22.920       90
 22.940       76
 22.960       79
 22.980       96
 23.000       66
 23.020       86
 23.040       88
 23.060       81
 23.080       83
 23.100      102
 23.120       81
 23.140       85
 23.160       85
 23.180       74
 23.200       76
 23.220       81
 23.240       76
 23.260       76
 23.280       76
 23.300       77
 23.320       62
 23.340       79
 23.360       77
 23.380       90
 23.400       77
 23.420       79
 23.440       77
 23.460       85
 23.480      106
 23.500       72
 23.520       96
 23.540       72
 23.560       72
 23.580       86
 23.600       77
 23.620       79
 23.640       88
 23.660       81
 23.680       71
 23.700       72
 23.720       74
 23.740       77
 23.760       86
 23.780       59
 23.800       77
 23.820       79
 23.840       88
 23.860       76
 23.880       90
 23.900       69
 23.920       72
 23.940       67
 23.960       79
 23.980       76
 24.000       79
 24.020       86
 24.040       79
 24.060       76
 24.080       98
 24.100       85
 24.120       76
 24.140       86
 24.160       81
 24.180       92
 24.200       86
 24.220       92
 24.240       67
 24.260       85
 24.280       85
 24.300       85
 24.320       77
 24.340       90
 24.360       77
 24.380       88
 24.400       52
 24.420       66
 24.440       92
 24.460       77
 24.480       76
 24.500       67
 24.520       85
 24.540       76
 24.560       86
 24.580       85
 24.600       81
 24.620       94
 24.640       79
 24.660      100
 24.680       71
 24.700       83
 24.720       85
 24.740       90
 24.760       79
 24.780       88
 24.800       85
 24.820       85
 24.840       66
 24.860       83
 24.880       72
 24.900       88
 24.920       74
 24.940       92
 24.960       85
 24.980       86
 25.000       71
 25.020       72
 25.040       77
 25.060       83
 25.080       79
 25.100       83
 25.120       66
 25.140       72
 25.160       72
 25.180       88
 25.200       85
 25.220       79
 25.240       81
 25.260       72
 25.280       81
 25.300       69
 25.320       79
 25.340       72
 25.360       88
 25.380       86
 25.400       71
 25.420       94
 25.440       83
 25.460       71
 25.480       94
 25.500       83
 25.520       77
 25.540       85
 25.560       77
 25.580       81
 25.600       92
 25.620       98
 25.640       85
 25.660       69
 25.680       81
 25.700       77
 25.720       79
 25.740       67
 25.760       69
 25.780       69
 25.800       92
 25.820       83
 25.840       85
 25.860       83
 25.880       79
 25.900       71
 25.920       79
 25.940       98
 25.960       77
 25.980       72
 26.000       94
 26.020       83
 26.040       96
 26.060       85
 26.080       90
 26.100       76
 26.120       67
 26.140       76
 26.160       85
 26.180       79
 26.200       77
 26.220      108
 26.240       90
 26.260       71
 26.280       83
 26.300       94
 26.320       83
 26.340       76
 26.360       86
 26.380       90
 26.400       81
 26.420       85
 26.440       76
 26.460       86
 26.480       76
 26.500       88
 26.520       94
 26.540       83
 26.560      110
 26.580       77
 26.600       85
 26.620       79
 26.640       92
 26.660       77
 26.680       71
 26.700       85
 26.720       90
 26.740       92
 26.760       83
 26.780       98
 26.800       83
 26.820       92
 26.840       72
 26.860       85
 26.880       86
 26.900       83
 26.920       88
 26.940       94
 26.960       64
 26.980       77
 27.000      100
 27.020       94
 27.040       77
 27.060       92
 27.080      108
 27.100       71
 27.120      100
 27.140       96
 27.160       83
 27.180       85
 27.200       85
 27.220       83
 27.240       76
 27.260      100
 27.280       83
 27.300       85
 27.320       90
 27.340      108
 27.360       90
 27.380      102
 27.400       94
 27.420       79
 27.440       90
 27.460       86
 27.480       86
 27.500       85
 27.520       79
 27.540       86
 27.560       77
 27.580       86
 27.600       90
 27.620       83
 27.640       88
 27.660       77
 27.680      102
 27.700       71
 27.720       81
 27.740       69
 27.760       77
 27.780       83
 27.800       94
 27.820       92
 27.840       83
 27.860       81
 27.880      104
 27.900       86
 27.920       85
 27.940       79
 27.960       85
 27.980       77
 28.000       88
 28.020       77
 28.040       92
 28.060       94
 28.080       90
 28.100       86
 28.120       92
 28.140       90
 28.160       92
 28.180       92
 28.200       96
 28.220       96
 28.240       90
 28.260       96
 28.280       90
 28.300       86
 28.320      100
 28.340       92
 28.360       77
 28.380       92
 28.400       77
 28.420       83
 28.440       85
 28.460       85
 28.480       77
 28.500       92
 28.520       77
 28.540       96
 28.560       90
 28.580       88
 28.600       96
 28.620       76
 28.640       77
 28.660      102
 28.680       72
 28.700       86
 28.720       94
 28.740       79
 28.760       90
 28.780       83
 28.800       92
 28.820       86
 28.840       88
 28.860       76
 28.880      102
 28.900       86
 28.920       86
 28.940       85
 28.960       77
 28.980       92
 29.000       85
 29.020       88
 29.040       77
 29.060       86
 29.080       88
 29.100       88
 29.120       79
 29.140       83
 29.160       71
 29.180      104
 29.200       77
 29.220       90
 29.240       96
 29.260       79
 29.280       90
 29.300      112
 29.320       90
 29.340       96
 29.360       76
 29.380       66
 29.400      100
 29.420       85
 29.440       94
 29.460       79
 29.480       98
 29.500       86
 29.520       67
 29.540       86
 29.560       69
 29.580       74
 29.600       90
 29.620       86
 29.640       86
 29.660       88
 29.680       72
 29.700       88
 29.720       79
 29.740       69
 29.760       85
 29.780       79
 29.800       88
 29.820       88
 29.840       69
 29.860       92
 29.880       96
 29.900       77
 29.920       98
 29.940       85
 29.960       98
 29.980       81
 30.000       90