File: 2021/XRD/42021.ASC
  3.000       83
  3.020       85
  3.040       86
  3.060       77
  3.080       88
  3.100       81
  3.120       94
  3.140      102
  3.160       86
  3.180       83
  3.200       94
  3.220       88
  3.240       86
  3.260       96
  3.280       88
  3.300       94
  3.320       88
  3.340       98
  3.360       85
  3.380      112
  3.400       90
  3.420      104
  3.440       74
  3.460      106
  3.480       92
  3.500      100
  3.520      100
  3.540      104
  3.560      100
  3.580      100
  3.600       96
  3.620      106
  3.640      117
  3.660       83
  3.680      106
  3.700      123
  3.720      108
  3.740      119
  3.760      119
  3.780      132
  3.800      114
  3.820      112
  3.840      112
  3.860      117
  3.880      121
  3.900      106
  3.920      137
  3.940      123
  3.960      117
  3.980      135
  4.000      144
  4.020      135
  4.040      132
  4.060      135
  4.080      117
  4.100      137
  4.120      142
  4.140      139
  4.160      137
  4.180      146
  4.200      156
  4.220      142
  4.240      169
  4.260      174
  4.280      151
  4.300      172
  4.320      166
  4.340      166
  4.360      164
  4.380      172
  4.400      202
  4.420      166
  4.440      180
  4.460      207
  4.480      199
  4.500      210
  4.520      182
  4.540      219
  4.560      216
  4.580      240
  4.600      225
  4.620      225
  4.640      259
  4.660      231
  4.680      234
  4.700      240
  4.720      234
  4.740      262
  4.760      253
  4.780      240
  4.800      222
  4.820      231
  4.840      231
  4.860      246
  4.880      225
  4.900      243
  4.920      237
  4.940      190
  4.960      213
  4.980      222
  5.000      204
  5.020      185
  5.040      190
  5.060      219
  5.080      180
  5.100      188
  5.120      199
  5.140      196
  5.160      204
  5.180      204
  5.200      166
  5.220      185
  5.240      174
  5.260      159
  5.280      190
  5.300      219
  5.320      172
  5.340      174
  5.360      161
  5.380      164
  5.400      172
  5.420      182
  5.440      185
  5.460      177
  5.480      159
  5.500      180
  5.520      174
  5.540      169
  5.560      174
  5.580      144
  5.600      151
  5.620      149
  5.640      161
  5.660      159
  5.680      154
  5.700      137
  5.720      169
  5.740      142
  5.760      182
  5.780      174
  5.800      154
  5.820      177
  5.840      156
  5.860      154
  5.880      151
  5.900      137
  5.920      188
  5.940      154
  5.960      159
  5.980      154
  6.000      180
  6.020      166
  6.040      177
  6.060      149
  6.080      144
  6.100      132
  6.120      146
  6.140      159
  6.160      161
  6.180      161
  6.200      164
  6.220      144
  6.240      166
  6.260      188
  6.280      149
  6.300      159
  6.320      164
  6.340      188
  6.360      169
  6.380      193
  6.400      190
  6.420      169
  6.440      164
  6.460      193
  6.480      166
  6.500      210
  6.520      202
  6.540      207
  6.560      199
  6.580      196
  6.600      202
  6.620      219
  6.640      210
  6.660      210
  6.680      219
  6.700      204
  6.720      207
  6.740      199
  6.760      188
  6.780      185
  6.800      190
  6.820      190
  6.840      174
  6.860      210
  6.880      199
  6.900      169
  6.920      182
  6.940      180
  6.960      177
  6.980      180
  7.000      190
  7.020      172
  7.040      204
  7.060      190
  7.080      193
  7.100      188
  7.120      169
  7.140      164
  7.160      164
  7.180      166
  7.200      172
  7.220      149
  7.240      166
  7.260      166
  7.280      177
  7.300      154
  7.320      161
  7.340      161
  7.360      130
  7.380      151
  7.400      164
  7.420      149
  7.440      144
  7.460      159
  7.480      159
  7.500      174
  7.520      172
  7.540      142
  7.560      161
  7.580      142
  7.600      132
  7.620      177
  7.640      156
  7.660      154
  7.680      142
  7.700      151
  7.720      146
  7.740      159
  7.760      156
  7.780      128
  7.800      174
  7.820      151
  7.840      156
  7.860      174
  7.880      161
  7.900      154
  7.920      137
  7.940      139
  7.960      159
  7.980      137
  8.000      132
  8.020      154
  8.040      156
  8.060      144
  8.080      144
  8.100      139
  8.120      149
  8.140      128
  8.160      146
  8.180      159
  8.200      135
  8.220      117
  8.240      130
  8.260      132
  8.280      104
  8.300      135
  8.320      123
  8.340      110
  8.360      121
  8.380      114
  8.400      121
  8.420      144
  8.440      125
  8.460      119
  8.480      102
  8.500      114
  8.520      106
  8.540       98
  8.560      112
  8.580      123
  8.600      110
  8.620      119
  8.640      110
  8.660      100
  8.680      112
  8.700      114
  8.720      128
  8.740      110
  8.760      114
  8.780      112
  8.800      117
  8.820      110
  8.840      132
  8.860      104
  8.880      106
  8.900      130
  8.920      104
  8.940      108
  8.960      119
  8.980      121
  9.000      108
  9.020      102
  9.040      102
  9.060      121
  9.080      100
  9.100       90
  9.120       90
  9.140       92
  9.160       98
  9.180       94
  9.200       90
  9.220      121
  9.240      108
  9.260       90
  9.280       92
  9.300      104
  9.320       90
  9.340       83
  9.360       92
  9.380      114
  9.400      102
  9.420      110
  9.440       96
  9.460      112
  9.480      100
  9.500      100
  9.520       90
  9.540       86
  9.560       81
  9.580       90
  9.600       83
  9.620       92
  9.640       94
  9.660       86
  9.680       88
  9.700      100
  9.720       98
  9.740       92
  9.760       85
  9.780       81
  9.800       86
  9.820       90
  9.840       85
  9.860       85
  9.880       86
  9.900       64
  9.920       76
  9.940       85
  9.960       79
  9.980       76
 10.000      102
 10.020       74
 10.040       90
 10.060       90
 10.080       83
 10.100       72
 10.120       90
 10.140       81
 10.160       88
 10.180       92
 10.200       86
 10.220       86
 10.240       69
 10.260       77
 10.280       62
 10.300       74
 10.320       72
 10.340       67
 10.360       76
 10.380       81
 10.400       86
 10.420       79
 10.440       72
 10.460       92
 10.480       76
 10.500       71
 10.520       74
 10.540       74
 10.560       66
 10.580       62
 10.600       79
 10.620       64
 10.640       64
 10.660       71
 10.680       66
 10.700       77
 10.720       74
 10.740       92
 10.760       66
 10.780       72
 10.800       71
 10.820       59
 10.840       83
 10.860       67
 10.880       76
 10.900       67
 10.920       71
 10.940       79
 10.960       64
 10.980       66
 11.000       71
 11.020       81
 11.040       76
 11.060       85
 11.080       88
 11.100       66
 11.120       76
 11.140       69
 11.160       53
 11.180       77
 11.200       64
 11.220       66
 11.240       81
 11.260       77
 11.280       56
 11.300       72
 11.320       76
 11.340       56
 11.360       64
 11.380       67
 11.400       62
 11.420       62
 11.440       67
 11.460       59
 11.480       64
 11.500       66
 11.520       72
 11.540       67
 11.560       77
 11.580       69
 11.600       62
 11.620       83
 11.640       67
 11.660       71
 11.680       48
 11.700       56
 11.720       48
 11.740       66
 11.760       58
 11.780       72
 11.800       56
 11.820       52
 11.840       71
 11.860       59
 11.880       71
 11.900       59
 11.920       52
 11.940       53
 11.960       55
 11.980       50
 12.000       53
 12.020       62
 12.040       56
 12.060       69
 12.080       58
 12.100       52
 12.120       71
 12.140       50
 12.160       53
 12.180       59
 12.200       62
 12.220       67
 12.240       72
 12.260       53
 12.280       52
 12.300       53
 12.320       55
 12.340       67
 12.360       59
 12.380       61
 12.400       59
 12.420       62
 12.440       53
 12.460       53
 12.480       62
 12.500       69
 12.520       41
 12.540       46
 12.560       58
 12.580       53
 12.600       48
 12.620       62
 12.640       59
 12.660       53
 12.680       72
 12.700       59
 12.720       55
 12.740       55
 12.760       62
 12.780       61
 12.800       48
 12.820       59
 12.840       56
 12.860       58
 12.880       56
 12.900       49
 12.920       62
 12.940       72
 12.960       61
 12.980       69
 13.000       53
 13.020       53
 13.040       40
 13.060       38
 13.080       66
 13.100       61
 13.120       45
 13.140       59
 13.160       58
 13.180       56
 13.200       66
 13.220       58
 13.240       58
 13.260       48
 13.280       48
 13.300       71
 13.320       48
 13.340       56
 13.360       48
 13.380       55
 13.400       48
 13.420       50
 13.440       56
 13.460       72
 13.480       62
 13.500       62
 13.520       59
 13.540       52
 13.560       44
 13.580       50
 13.600       53
 13.620       55
 13.640       56
 13.660       49
 13.680       56
 13.700       61
 13.720       48
 13.740       49
 13.760       61
 13.780       49
 13.800       49
 13.820       71
 13.840       46
 13.860       49
 13.880       46
 13.900       59
 13.920       59
 13.940       52
 13.960       59
 13.980       50
 14.000       66
 14.020       53
 14.040       44
 14.060       56
 14.080       50
 14.100       36
 14.120       53
 14.140       53
 14.160       45
 14.180       49
 14.200       46
 14.220       56
 14.240       44
 14.260       53
 14.280       50
 14.300       55
 14.320       56
 14.340       46
 14.360       56
 14.380       49
 14.400       49
 14.420       52
 14.440       42
 14.460       50
 14.480       48
 14.500       53
 14.520       48
 14.540       52
 14.560       52
 14.580       44
 14.600       44
 14.620       46
 14.640       50
 14.660       58
 14.680       53
 14.700       45
 14.720       61
 14.740       45
 14.760       53
 14.780       45
 14.800       53
 14.820       34
 14.840       59
 14.860       44
 14.880       44
 14.900       50
 14.920       46
 14.940       53
 14.960       50
 14.980       55
 15.000       55
 15.020       55
 15.040       49
 15.060       45
 15.080       45
 15.100       42
 15.120       46
 15.140       53
 15.160       40
 15.180       52
 15.200       37
 15.220       48
 15.240       40
 15.260       41
 15.280       53
 15.300       40
 15.320       49
 15.340       44
 15.360       49
 15.380       49
 15.400       36
 15.420       48
 15.440       44
 15.460       40
 15.480       52
 15.500       44
 15.520       35
 15.540       42
 15.560       45
 15.580       34
 15.600       44
 15.620       50
 15.640       48
 15.660       49
 15.680       37
 15.700       42
 15.720       44
 15.740       41
 15.760       38
 15.780       32
 15.800       40
 15.820       50
 15.840       44
 15.860       50
 15.880       56
 15.900       50
 15.920       34
 15.940       36
 15.960       48
 15.980       50
 16.000       44
 16.020       38
 16.040       42
 16.060       41
 16.080       49
 16.100       37
 16.120       40
 16.140       59
 16.160       48
 16.180       42
 16.200       61
 16.220       38
 16.240       52
 16.260       38
 16.280       38
 16.300       41
 16.320       48
 16.340       42
 16.360       53
 16.380       53
 16.400       41
 16.420       45
 16.440       37
 16.460       44
 16.480       49
 16.500       48
 16.520       37
 16.540       37
 16.560       48
 16.580       44
 16.600       27
 16.620       56
 16.640       41
 16.660       44
 16.680       42
 16.700       48
 16.720       41
 16.740       50
 16.760       44
 16.780       41
 16.800       44
 16.820       53
 16.840       44
 16.860       36
 16.880       52
 16.900       41
 16.920       42
 16.940       44
 16.960       61
 16.980       49
 17.000       40
 17.020       52
 17.040       44
 17.060       36
 17.080       44
 17.100       48
 17.120       53
 17.140       58
 17.160       53
 17.180       49
 17.200       35
 17.220       50
 17.240       38
 17.260       50
 17.280       40
 17.300       46
 17.320       35
 17.340       48
 17.360       36
 17.380       56
 17.400       42
 17.420       49
 17.440       52
 17.460       52
 17.480       44
 17.500       49
 17.520       48
 17.540       37
 17.560       29
 17.580       45
 17.600       52
 17.620       59
 17.640       46
 17.660       40
 17.680       42
 17.700       44
 17.720       42
 17.740       44
 17.760       52
 17.780       50
 17.800       53
 17.820       53
 17.840       46
 17.860       52
 17.880       32
 17.900       46
 17.920       50
 17.940       44
 17.960       50
 17.980       58
 18.000       41
 18.020       45
 18.040       45
 18.060       40
 18.080       38
 18.100       53
 18.120       44
 18.140       41
 18.160       44
 18.180       52
 18.200       55
 18.220       49
 18.240       53
 18.260       48
 18.280       67
 18.300       64
 18.320       64
 18.340       58
 18.360       40
 18.380       55
 18.400       52
 18.420       53
 18.440       49
 18.460       50
 18.480       52
 18.500       44
 18.520       53
 18.540       44
 18.560       50
 18.580       50
 18.600       48
 18.620       44
 18.640       53
 18.660       45
 18.680       56
 18.700       44
 18.720       55
 18.740       37
 18.760       58
 18.780       58
 18.800       59
 18.820       52
 18.840       52
 18.860       46
 18.880       45
 18.900       52
 18.920       48
 18.940       45
 18.960       46
 18.980       53
 19.000       53
 19.020       48
 19.040       48
 19.060       69
 19.080       50
 19.100       56
 19.120       48
 19.140       50
 19.160       50
 19.180       56
 19.200       44
 19.220       48
 19.240       53
 19.260       55
 19.280       44
 19.300       50
 19.320       48
 19.340       53
 19.360       40
 19.380       49
 19.400       59
 19.420       44
 19.440       42
 19.460       50
 19.480       53
 19.500       56
 19.520       52
 19.540       46
 19.560       44
 19.580       56
 19.600       48
 19.620       44
 19.640       53
 19.660       59
 19.680       59
 19.700       52
 19.720       55
 19.740       59
 19.760       44
 19.780       53
 19.800       48
 19.820       64
 19.840       48
 19.860       50
 19.880       56
 19.900       46
 19.920       56
 19.940       44
 19.960       50
 19.980       50
 20.000       52
 20.020       52
 20.040       44
 20.060       44
 20.080       52
 20.100       66
 20.120       56
 20.140       66
 20.160       61
 20.180       50
 20.200       69
 20.220       55
 20.240       59
 20.260       66
 20.280       56
 20.300       48
 20.320       48
 20.340       58
 20.360       62
 20.380       55
 20.400       40
 20.420       64
 20.440       50
 20.460       62
 20.480       62
 20.500       53
 20.520       53
 20.540       48
 20.560       48
 20.580       59
 20.600       62
 20.620       52
 20.640       50
 20.660       44
 20.680       62
 20.700       61
 20.720       50
 20.740       42
 20.760       61
 20.780       53
 20.800       52
 20.820       59
 20.840       64
 20.860       48
 20.880       55
 20.900       48
 20.920       48
 20.940       55
 20.960       50
 20.980       55
 21.000       67
 21.020       66
 21.040       56
 21.060       44
 21.080       64
 21.100       59
 21.120       66
 21.140       50
 21.160       59
 21.180       61
 21.200       66
 21.220       45
 21.240       48
 21.260       53
 21.280       59
 21.300       56
 21.320       50
 21.340       64
 21.360       49
 21.380       52
 21.400       59
 21.420       44
 21.440       50
 21.460       48
 21.480       67
 21.500       53
 21.520       64
 21.540       49
 21.560       62
 21.580       56
 21.600       49
 21.620       62
 21.640       44
 21.660       59
 21.680       49
 21.700       62
 21.720       50
 21.740       53
 21.760       59
 21.780       58
 21.800       59
 21.820       53
 21.840       53
 21.860       58
 21.880       50
 21.900       56
 21.920       52
 21.940       50
 21.960       58
 21.980       42
 22.000       53
 22.020       52
 22.040       59
 22.060       44
 22.080       66
 22.100       56
 22.120       53
 22.140       53
 22.160       66
 22.180       53
 22.200       56
 22.220       58
 22.240       53
 22.260       53
 22.280       59
 22.300       53
 22.320       59
 22.340       48
 22.360       72
 22.380       53
 22.400       53
 22.420       46
 22.440       59
 22.460       50
 22.480       48
 22.500       44
 22.520       50
 22.540       64
 22.560       53
 22.580       66
 22.600       59
 22.620       59
 22.640       59
 22.660       52
 22.680       59
 22.700       52
 22.720       79
 22.740       62
 22.760       59
 22.780       59
 22.800       53
 22.820       50
 22.840       56
 22.860       44
 22.880       50
 22.900       46
 22.920       50
 22.940       46
 22.960       58
 22.980       50
 23.000       56
 23.020       50
 23.040       55
 23.060       50
 23.080       58
 23.100       50
 23.120       61
 23.140       59
 23.160       46
 23.180       50
 23.200       53
 23.220       67
 23.240       48
 23.260       64
 23.280       53
 23.300       55
 23.320       56
 23.340       56
 23.360       59
 23.380       52
 23.400       53
 23.420       55
 23.440       61
 23.460       48
 23.480       50
 23.500       62
 23.520       53
 23.540       45
 23.560       41
 23.580       59
 23.600       48
 23.620       85
 23.640       56
 23.660       56
 23.680       58
 23.700       67
 23.720       53
 23.740       49
 23.760       58
 23.780       50
 23.800       50
 23.820       48
 23.840       59
 23.860       45
 23.880       42
 23.900       48
 23.920       58
 23.940       50
 23.960       56
 23.980       56
 24.000       52
 24.020       48
 24.040       58
 24.060       71
 24.080       58
 24.100       66
 24.120       44
 24.140       55
 24.160       50
 24.180       59
 24.200       49
 24.220       45
 24.240       58
 24.260       48
 24.280       56
 24.300       52
 24.320       53
 24.340       44
 24.360       44
 24.380       56
 24.400       52
 24.420       56
 24.440       48
 24.460       55
 24.480       45
 24.500       48
 24.520       52
 24.540       55
 24.560       71
 24.580       66
 24.600       48
 24.620       59
 24.640       55
 24.660       66
 24.680       56
 24.700       53
 24.720       55
 24.740       59
 24.760       48
 24.780       46
 24.800       52
 24.820       55
 24.840       45
 24.860       55
 24.880       62
 24.900       59
 24.920       48
 24.940       48
 24.960       59
 24.980       56
 25.000       56
 25.020       44
 25.040       66
 25.060       59
 25.080       49
 25.100       44
 25.120       38
 25.140       71
 25.160       48
 25.180       62
 25.200       40
 25.220       48
 25.240       52
 25.260       64
 25.280       53
 25.300       58
 25.320       61
 25.340       53
 25.360       50
 25.380       44
 25.400       56
 25.420       53
 25.440       53
 25.460       52
 25.480       49
 25.500       50
 25.520       50
 25.540       55
 25.560       67
 25.580       62
 25.600       56
 25.620       62
 25.640       48
 25.660       62
 25.680       58
 25.700       53
 25.720       46
 25.740       48
 25.760       49
 25.780       56
 25.800       58
 25.820       38
 25.840       64
 25.860       59
 25.880       62
 25.900       53
 25.920       48
 25.940       56
 25.960       55
 25.980       61
 26.000       66
 26.020       53
 26.040       76
 26.060       58
 26.080       48
 26.100       48
 26.120       69
 26.140       56
 26.160       62
 26.180       38
 26.200       59
 26.220       56
 26.240       56
 26.260       53
 26.280       53
 26.300       61
 26.320       45
 26.340       59
 26.360       56
 26.380       53
 26.400       77
 26.420       64
 26.440       56
 26.460       53
 26.480       52
 26.500       56
 26.520       56
 26.540       56
 26.560       53
 26.580       50
 26.600       56
 26.620       67
 26.640       67
 26.660       56
 26.680       56
 26.700       55
 26.720       66
 26.740       59
 26.760       69
 26.780       46
 26.800       41
 26.820       64
 26.840       62
 26.860       50
 26.880       38
 26.900       56
 26.920       56
 26.940       66
 26.960       59
 26.980       59
 27.000       58
 27.020       44
 27.040       56
 27.060       62
 27.080       72
 27.100       59
 27.120       59
 27.140       42
 27.160       61
 27.180       41
 27.200       56
 27.220       59
 27.240       62
 27.260       67
 27.280       55
 27.300       66
 27.320       58
 27.340       46
 27.360       62
 27.380       56
 27.400       71
 27.420       67
 27.440       56
 27.460       56
 27.480       40
 27.500       50
 27.520       67
 27.540       56
 27.560       46
 27.580       56
 27.600       52
 27.620       61
 27.640       66
 27.660       59
 27.680       52
 27.700       59
 27.720       56
 27.740       71
 27.760       67
 27.780       64
 27.800       50
 27.820       55
 27.840       49
 27.860       64
 27.880       56
 27.900       72
 27.920       53
 27.940       66
 27.960       42
 27.980       52
 28.000       55
 28.020       76
 28.040       56
 28.060       55
 28.080       53
 28.100       53
 28.120       55
 28.140       56
 28.160       71
 28.180       58
 28.200       50
 28.220       58
 28.240       61
 28.260       56
 28.280       56
 28.300       52
 28.320       55
 28.340       55
 28.360       61
 28.380       55
 28.400       64
 28.420       67
 28.440       45
 28.460       62
 28.480       48
 28.500       59
 28.520       59
 28.540       59
 28.560       58
 28.580       72
 28.600       58
 28.620       52
 28.640       52
 28.660       53
 28.680       58
 28.700       67
 28.720       48
 28.740       62
 28.760       69
 28.780       66
 28.800       61
 28.820       55
 28.840       56
 28.860       52
 28.880       71
 28.900       64
 28.920       53
 28.940       64
 28.960       59
 28.980       59
 29.000       45
 29.020       52
 29.040       52
 29.060       62
 29.080       48
 29.100       53
 29.120       41
 29.140       69
 29.160       62
 29.180       55
 29.200       53
 29.220       41
 29.240       53
 29.260       62
 29.280       58
 29.300       53
 29.320       72
 29.340       53
 29.360       55
 29.380       50
 29.400       53
 29.420       55
 29.440       56
 29.460       48
 29.480       52
 29.500       48
 29.520       53
 29.540       46
 29.560       53
 29.580       53
 29.600       69
 29.620       59
 29.640       67
 29.660       44
 29.680       48
 29.700       66
 29.720       52
 29.740       61
 29.760       56
 29.780       53
 29.800       48
 29.820       66
 29.840       48
 29.860       64
 29.880       44
 29.900       50
 29.920       71
 29.940       53
 29.960       62
 29.980       52
 30.000       55