File: 2021/XRD/52021.ASC
  3.000       37
  3.020       37
  3.040       31
  3.060       34
  3.080       35
  3.100       48
  3.120       40
  3.140       35
  3.160       42
  3.180       32
  3.200       40
  3.220       37
  3.240       29
  3.260       32
  3.280       40
  3.300       44
  3.320       44
  3.340       36
  3.360       42
  3.380       38
  3.400       40
  3.420       38
  3.440       38
  3.460       45
  3.480       26
  3.500       44
  3.520       37
  3.540       38
  3.560       46
  3.580       42
  3.600       38
  3.620       37
  3.640       36
  3.660       40
  3.680       62
  3.700       48
  3.720       49
  3.740       55
  3.760       38
  3.780       44
  3.800       42
  3.820       30
  3.840       45
  3.860       49
  3.880       44
  3.900       44
  3.920       49
  3.940       41
  3.960       37
  3.980       59
  4.000       50
  4.020       64
  4.040       38
  4.060       44
  4.080       53
  4.100       55
  4.120       55
  4.140       37
  4.160       59
  4.180       72
  4.200       56
  4.220       45
  4.240       59
  4.260       85
  4.280       49
  4.300       52
  4.320       53
  4.340       50
  4.360       77
  4.380       79
  4.400       85
  4.420       66
  4.440       76
  4.460       71
  4.480       69
  4.500       86
  4.520       76
  4.540       81
  4.560       77
  4.580      102
  4.600       77
  4.620       98
  4.640       76
  4.660       79
  4.680       94
  4.700       88
  4.720       96
  4.740      119
  4.760       86
  4.780       96
  4.800       96
  4.820      108
  4.840      100
  4.860       88
  4.880       77
  4.900       85
  4.920      110
  4.940       94
  4.960       83
  4.980       90
  5.000      100
  5.020       85
  5.040       88
  5.060       86
  5.080       85
  5.100       86
  5.120       85
  5.140       96
  5.160       85
  5.180       96
  5.200       79
  5.220       67
  5.240       67
  5.260       79
  5.280       67
  5.300       69
  5.320       79
  5.340       62
  5.360       76
  5.380       76
  5.400       62
  5.420       59
  5.440       56
  5.460       66
  5.480       64
  5.500       56
  5.520       64
  5.540       56
  5.560       62
  5.580       64
  5.600       48
  5.620       67
  5.640       50
  5.660       50
  5.680       62
  5.700       49
  5.720       45
  5.740       62
  5.760       53
  5.780       40
  5.800       67
  5.820       58
  5.840       67
  5.860       59
  5.880       50
  5.900       53
  5.920       59
  5.940       66
  5.960       52
  5.980       56
  6.000       71
  6.020       55
  6.040       67
  6.060       49
  6.080       56
  6.100       53
  6.120       46
  6.140       69
  6.160       67
  6.180       55
  6.200       71
  6.220       64
  6.240       81
  6.260       52
  6.280       66
  6.300       64
  6.320       72
  6.340       66
  6.360       72
  6.380       72
  6.400       72
  6.420       79
  6.440       77
  6.460       77
  6.480       79
  6.500       76
  6.520       86
  6.540      106
  6.560       76
  6.580       71
  6.600       76
  6.620       76
  6.640       83
  6.660       59
  6.680       96
  6.700       79
  6.720       71
  6.740       96
  6.760       83
  6.780       83
  6.800       72
  6.820       86
  6.840       76
  6.860       83
  6.880       81
  6.900       83
  6.920       92
  6.940       59
  6.960       76
  6.980       79
  7.000       64
  7.020       90
  7.040       71
  7.060       72
  7.080       79
  7.100       76
  7.120       86
  7.140       71
  7.160       71
  7.180       90
  7.200       74
  7.220       64
  7.240       66
  7.260       67
  7.280       71
  7.300       83
  7.320       85
  7.340       77
  7.360       71
  7.380       86
  7.400       76
  7.420       72
  7.440       76
  7.460       76
  7.480       76
  7.500       58
  7.520       66
  7.540       71
  7.560       76
  7.580       86
  7.600       76
  7.620       61
  7.640       67
  7.660       71
  7.680       79
  7.700       67
  7.720       66
  7.740       58
  7.760       83
  7.780       86
  7.800       66
  7.820       58
  7.840       64
  7.860       83
  7.880       77
  7.900       71
  7.920       76
  7.940       88
  7.960       64
  7.980       76
  8.000       71
  8.020       92
  8.040       77
  8.060       79
  8.080       76
  8.100       72
  8.120       62
  8.140       48
  8.160       69
  8.180       66
  8.200       62
  8.220       62
  8.240       66
  8.260       53
  8.280       53
  8.300       76
  8.320       62
  8.340       55
  8.360       56
  8.380       53
  8.400       46
  8.420       49
  8.440       53
  8.460       55
  8.480       59
  8.500       67
  8.520       56
  8.540       55
  8.560       50
  8.580       53
  8.600       59
  8.620       53
  8.640       67
  8.660       44
  8.680       50
  8.700       53
  8.720       56
  8.740       59
  8.760       53
  8.780       56
  8.800       66
  8.820       55
  8.840       50
  8.860       56
  8.880       48
  8.900       56
  8.920       58
  8.940       56
  8.960       62
  8.980       48
  9.000       53
  9.020       46
  9.040       62
  9.060       66
  9.080       45
  9.100       53
  9.120       48
  9.140       59
  9.160       53
  9.180       56
  9.200       53
  9.220       56
  9.240       46
  9.260       56
  9.280       50
  9.300       53
  9.320       53
  9.340       44
  9.360       49
  9.380       48
  9.400       48
  9.420       45
  9.440       49
  9.460       40
  9.480       50
  9.500       55
  9.520       53
  9.540       62
  9.560       50
  9.580       64
  9.600       52
  9.620       48
  9.640       50
  9.660       53
  9.680       48
  9.700       44
  9.720       45
  9.740       45
  9.760       44
  9.780       50
  9.800       52
  9.820       41
  9.840       38
  9.860       55
  9.880       49
  9.900       50
  9.920       38
  9.940       40
  9.960       40
  9.980       56
 10.000       66
 10.020       36
 10.040       50
 10.060       48
 10.080       48
 10.100       48
 10.120       48
 10.140       37
 10.160       48
 10.180       49
 10.200       53
 10.220       53
 10.240       38
 10.260       49
 10.280       49
 10.300       50
 10.320       44
 10.340       44
 10.360       50
 10.380       62
 10.400       53
 10.420       44
 10.440       52
 10.460       50
 10.480       36
 10.500       46
 10.520       53
 10.540       52
 10.560       50
 10.580       52
 10.600       52
 10.620       50
 10.640       59
 10.660       50
 10.680       44
 10.700       55
 10.720       44
 10.740       53
 10.760       34
 10.780       48
 10.800       34
 10.820       58
 10.840       48
 10.860       38
 10.880       46
 10.900       44
 10.920       49
 10.940       53
 10.960       44
 10.980       53
 11.000       46
 11.020       40
 11.040       45
 11.060       45
 11.080       26
 11.100       59
 11.120       32
 11.140       50
 11.160       50
 11.180       49
 11.200       53
 11.220       44
 11.240       56
 11.260       44
 11.280       62
 11.300       38
 11.320       40
 11.340       62
 11.360       52
 11.380       45
 11.400       42
 11.420       46
 11.440       45
 11.460       31
 11.480       52
 11.500       52
 11.520       53
 11.540       42
 11.560       38
 11.580       48
 11.600       40
 11.620       45
 11.640       42
 11.660       41
 11.680       48
 11.700       42
 11.720       41
 11.740       44
 11.760       52
 11.780       42
 11.800       45
 11.820       35
 11.840       48
 11.860       45
 11.880       44
 11.900       44
 11.920       38
 11.940       44
 11.960       50
 11.980       38
 12.000       45
 12.020       42
 12.040       36
 12.060       40
 12.080       53
 12.100       44
 12.120       42
 12.140       48
 12.160       49
 12.180       35
 12.200       38
 12.220       44
 12.240       49
 12.260       56
 12.280       40
 12.300       44
 12.320       36
 12.340       41
 12.360       32
 12.380       44
 12.400       50
 12.420       46
 12.440       53
 12.460       38
 12.480       40
 12.500       50
 12.520       44
 12.540       48
 12.560       45
 12.580       42
 12.600       49
 12.620       32
 12.640       55
 12.660       36
 12.680       38
 12.700       42
 12.720       32
 12.740       35
 12.760       46
 12.780       37
 12.800       44
 12.820       41
 12.840       56
 12.860       38
 12.880       52
 12.900       41
 12.920       38
 12.940       44
 12.960       32
 12.980       44
 13.000       32
 13.020       41
 13.040       35
 13.060       42
 13.080       38
 13.100       56
 13.120       45
 13.140       45
 13.160       30
 13.180       44
 13.200       34
 13.220       37
 13.240       46
 13.260       45
 13.280       49
 13.300       37
 13.320       37
 13.340       36
 13.360       38
 13.380       35
 13.400       36
 13.420       41
 13.440       35
 13.460       38
 13.480       40
 13.500       46
 13.520       38
 13.540       46
 13.560       37
 13.580       36
 13.600       44
 13.620       48
 13.640       40
 13.660       34
 13.680       38
 13.700       45
 13.720       46
 13.740       42
 13.760       44
 13.780       37
 13.800       44
 13.820       42
 13.840       48
 13.860       48
 13.880       53
 13.900       38
 13.920       31
 13.940       37
 13.960       38
 13.980       24
 14.000       34
 14.020       34
 14.040       38
 14.060       30
 14.080       32
 14.100       32
 14.120       41
 14.140       32
 14.160       40
 14.180       34
 14.200       31
 14.220       28
 14.240       46
 14.260       38
 14.280       30
 14.300       34
 14.320       38
 14.340       38
 14.360       32
 14.380       31
 14.400       29
 14.420       28
 14.440       38
 14.460       18
 14.480       42
 14.500       42
 14.520       28
 14.540       37
 14.560       36
 14.580       38
 14.600       24
 14.620       30
 14.640       32
 14.660       40
 14.680       36
 14.700       22
 14.720       29
 14.740       32
 14.760       24
 14.780       41
 14.800       26
 14.820       35
 14.840       35
 14.860       31
 14.880       21
 14.900       32
 14.920       38
 14.940       23
 14.960       38
 14.980       32
 15.000       28
 15.020       31
 15.040       19
 15.060       27
 15.080       25
 15.100       31
 15.120       37
 15.140       25
 15.160       38
 15.180       40
 15.200       38
 15.220       30
 15.240       30
 15.260       32
 15.280       28
 15.300       31
 15.320       27
 15.340       30
 15.360       38
 15.380       31
 15.400       37
 15.420       23
 15.440       38
 15.460       27
 15.480       24
 15.500       38
 15.520       31
 15.540       31
 15.560       29
 15.580       27
 15.600       29
 15.620       24
 15.640       38
 15.660       32
 15.680       29
 15.700       40
 15.720       34
 15.740       32
 15.760       32
 15.780       28
 15.800       32
 15.820       36
 15.840       36
 15.860       28
 15.880       22
 15.900       16
 15.920       32
 15.940       24
 15.960       32
 15.980       37
 16.000       28
 16.020       31
 16.040       29
 16.060       20
 16.080       32
 16.100       27
 16.120       30
 16.140       38
 16.160       32
 16.180       28
 16.200       29
 16.220       38
 16.240       28
 16.260       27
 16.280       31
 16.300       38
 16.320       32
 16.340       32
 16.360       45
 16.380       34
 16.400       35
 16.420       38
 16.440       34
 16.460       38
 16.480       28
 16.500       22
 16.520       25
 16.540       29
 16.560       27
 16.580       29
 16.600       29
 16.620       29
 16.640       27
 16.660       30
 16.680       27
 16.700       31
 16.720       38
 16.740       27
 16.760       40
 16.780       27
 16.800       35
 16.820       29
 16.840       19
 16.860       35
 16.880       32
 16.900       38
 16.920       34
 16.940       25
 16.960       38
 16.980       32
 17.000       34
 17.020       31
 17.040       25
 17.060       30
 17.080       30
 17.100       35
 17.120       32
 17.140       23
 17.160       30
 17.180       41
 17.200       32
 17.220       36
 17.240       34
 17.260       32
 17.280       31
 17.300       36
 17.320       32
 17.340       27
 17.360       36
 17.380       36
 17.400       28
 17.420       26
 17.440       44
 17.460       30
 17.480       32
 17.500       38
 17.520       32
 17.540       28
 17.560       22
 17.580       27
 17.600       24
 17.620       28
 17.640       32
 17.660       35
 17.680       37
 17.700       35
 17.720       29
 17.740       36
 17.760       26
 17.780       35
 17.800       30
 17.820       36
 17.840       28
 17.860       32
 17.880       35
 17.900       29
 17.920       34
 17.940       26
 17.960       24
 17.980       36
 18.000       36
 18.020       32
 18.040       32
 18.060       36
 18.080       32
 18.100       35
 18.120       40
 18.140       27
 18.160       38
 18.180       29
 18.200       32
 18.220       34
 18.240       35
 18.260       38
 18.280       32
 18.300       32
 18.320       31
 18.340       30
 18.360       25
 18.380       30
 18.400       35
 18.420       44
 18.440       40
 18.460       42
 18.480       44
 18.500       42
 18.520       38
 18.540       38
 18.560       38
 18.580       30
 18.600       32
 18.620       25
 18.640       36
 18.660       23
 18.680       25
 18.700       35
 18.720       32
 18.740       32
 18.760       37
 18.780       27
 18.800       40
 18.820       35
 18.840       38
 18.860       37
 18.880       37
 18.900       23
 18.920       29
 18.940       34
 18.960       27
 18.980       31
 19.000       40
 19.020       37
 19.040       44
 19.060       32
 19.080       30
 19.100       36
 19.120       34
 19.140       38
 19.160       32
 19.180       37
 19.200       35
 19.220       31
 19.240       38
 19.260       48
 19.280       40
 19.300       34
 19.320       35
 19.340       48
 19.360       36
 19.380       36
 19.400       38
 19.420       34
 19.440       31
 19.460       42
 19.480       40
 19.500       48
 19.520       34
 19.540       37
 19.560       30
 19.580       30
 19.600       44
 19.620       21
 19.640       38
 19.660       50
 19.680       29
 19.700       40
 19.720       35
 19.740       32
 19.760       31
 19.780       41
 19.800       32
 19.820       32
 19.840       41
 19.860       29
 19.880       42
 19.900       26
 19.920       40
 19.940       44
 19.960       38
 19.980       38
 20.000       37
 20.020       32
 20.040       32
 20.060       45
 20.080       40
 20.100       37
 20.120       38
 20.140       45
 20.160       42
 20.180       38
 20.200       48
 20.220       32
 20.240       35
 20.260       48
 20.280       37
 20.300       37
 20.320       50
 20.340       41
 20.360       44
 20.380       38
 20.400       40
 20.420       29
 20.440       36
 20.460       37
 20.480       41
 20.500       31
 20.520       32
 20.540       42
 20.560       46
 20.580       32
 20.600       48
 20.620       45
 20.640       45
 20.660       61
 20.680       35
 20.700       45
 20.720       45
 20.740       42
 20.760       38
 20.780       44
 20.800       38
 20.820       40
 20.840       48
 20.860       40
 20.880       46
 20.900       34
 20.920       55
 20.940       42
 20.960       29
 20.980       42
 21.000       40
 21.020       38
 21.040       44
 21.060       38
 21.080       35
 21.100       32
 21.120       42
 21.140       37
 21.160       42
 21.180       38
 21.200       40
 21.220       30
 21.240       38
 21.260       32
 21.280       48
 21.300       31
 21.320       38
 21.340       52
 21.360       41
 21.380       34
 21.400       41
 21.420       38
 21.440       50
 21.460       41
 21.480       37
 21.500       48
 21.520       46
 21.540       44
 21.560       34
 21.580       35
 21.600       59
 21.620       48
 21.640       49
 21.660       31
 21.680       48
 21.700       53
 21.720       38
 21.740       34
 21.760       38
 21.780       42
 21.800       45
 21.820       38
 21.840       42
 21.860       40
 21.880       49
 21.900       48
 21.920       44
 21.940       45
 21.960       30
 21.980       38
 22.000       44
 22.020       38
 22.040       48
 22.060       40
 22.080       40
 22.100       37
 22.120       41
 22.140       36
 22.160       56
 22.180       36
 22.200       40
 22.220       34
 22.240       31
 22.260       38
 22.280       32
 22.300       44
 22.320       40
 22.340       38
 22.360       49
 22.380       42
 22.400       49
 22.420       38
 22.440       38
 22.460       44
 22.480       52
 22.500       46
 22.520       46
 22.540       38
 22.560       35
 22.580       50
 22.600       50
 22.620       40
 22.640       38
 22.660       29
 22.680       32
 22.700       40
 22.720       50
 22.740       32
 22.760       44
 22.780       46
 22.800       36
 22.820       38
 22.840       44
 22.860       36
 22.880       38
 22.900       41
 22.920       49
 22.940       40
 22.960       42
 22.980       42
 23.000       38
 23.020       49
 23.040       41
 23.060       48
 23.080       40
 23.100       31
 23.120       46
 23.140       45
 23.160       38
 23.180       40
 23.200       45
 23.220       48
 23.240       44
 23.260       34
 23.280       44
 23.300       42
 23.320       42
 23.340       36
 23.360       41
 23.380       38
 23.400       48
 23.420       44
 23.440       45
 23.460       45
 23.480       41
 23.500       32
 23.520       35
 23.540       48
 23.560       42
 23.580       46
 23.600       48
 23.620       44
 23.640       40
 23.660       53
 23.680       48
 23.700       42
 23.720       44
 23.740       30
 23.760       41
 23.780       36
 23.800       49
 23.820       38
 23.840       32
 23.860       40
 23.880       45
 23.900       29
 23.920       62
 23.940       40
 23.960       42
 23.980       38
 24.000       32
 24.020       38
 24.040       37
 24.060       37
 24.080       32
 24.100       42
 24.120       48
 24.140       44
 24.160       36
 24.180       44
 24.200       45
 24.220       26
 24.240       27
 24.260       36
 24.280       34
 24.300       45
 24.320       50
 24.340       42
 24.360       38
 24.380       34
 24.400       45
 24.420       41
 24.440       36
 24.460       42
 24.480       38
 24.500       38
 24.520       48
 24.540       38
 24.560       41
 24.580       41
 24.600       32
 24.620       40
 24.640       36
 24.660       50
 24.680       31
 24.700       45
 24.720       48
 24.740       48
 24.760       42
 24.780       38
 24.800       38
 24.820       41
 24.840       48
 24.860       41
 24.880       40
 24.900       28
 24.920       34
 24.940       55
 24.960       42
 24.980       50
 25.000       46
 25.020       40
 25.040       48
 25.060       44
 25.080       38
 25.100       40
 25.120       38
 25.140       36
 25.160       40
 25.180       45
 25.200       56
 25.220       45
 25.240       32
 25.260       40
 25.280       50
 25.300       44
 25.320       52
 25.340       37
 25.360       38
 25.380       46
 25.400       49
 25.420       32
 25.440       50
 25.460       48
 25.480       34
 25.500       44
 25.520       53
 25.540       38
 25.560       44
 25.580       38
 25.600       26
 25.620       38
 25.640       48
 25.660       45
 25.680       41
 25.700       38
 25.720       48
 25.740       31
 25.760       37
 25.780       44
 25.800       29
 25.820       44
 25.840       44
 25.860       46
 25.880       34
 25.900       44
 25.920       40
 25.940       50
 25.960       35
 25.980       32
 26.000       50
 26.020       50
 26.040       49
 26.060       35
 26.080       30
 26.100       50
 26.120       48
 26.140       38
 26.160       42
 26.180       50
 26.200       27
 26.220       38
 26.240       40
 26.260       53
 26.280       38
 26.300       38
 26.320       44
 26.340       48
 26.360       38
 26.380       31
 26.400       41
 26.420       38
 26.440       34
 26.460       26
 26.480       38
 26.500       36
 26.520       48
 26.540       38
 26.560       46
 26.580       31
 26.600       42
 26.620       53
 26.640       49
 26.660       45
 26.680       35
 26.700       41
 26.720       38
 26.740       49
 26.760       28
 26.780       48
 26.800       44
 26.820       40
 26.840       38
 26.860       44
 26.880       35
 26.900       48
 26.920       38
 26.940       41
 26.960       42
 26.980       49
 27.000       52
 27.020       52
 27.040       44
 27.060       37
 27.080       46
 27.100       32
 27.120       44
 27.140       48
 27.160       49
 27.180       31
 27.200       44
 27.220       36
 27.240       44
 27.260       35
 27.280       45
 27.300       37
 27.320       42
 27.340       48
 27.360       48
 27.380       42
 27.400       38
 27.420       41
 27.440       40
 27.460       41
 27.480       36
 27.500       52
 27.520       45
 27.540       37
 27.560       36
 27.580       32
 27.600       29
 27.620       38
 27.640       36
 27.660       38
 27.680       44
 27.700       38
 27.720       49
 27.740       44
 27.760       42
 27.780       38
 27.800       49
 27.820       46
 27.840       42
 27.860       46
 27.880       44
 27.900       52
 27.920       45
 27.940       46
 27.960       40
 27.980       36
 28.000       40
 28.020       44
 28.040       42
 28.060       44
 28.080       38
 28.100       45
 28.120       49
 28.140       37
 28.160       40
 28.180       44
 28.200       40
 28.220       56
 28.240       44
 28.260       40
 28.280       48
 28.300       53
 28.320       41
 28.340       35
 28.360       41
 28.380       46
 28.400       36
 28.420       42
 28.440       44
 28.460       49
 28.480       56
 28.500       48
 28.520       37
 28.540       36
 28.560       44
 28.580       34
 28.600       50
 28.620       40
 28.640       40
 28.660       48
 28.680       41
 28.700       44
 28.720       45
 28.740       44
 28.760       50
 28.780       44
 28.800       48
 28.820       44
 28.840       44
 28.860       42
 28.880       34
 28.900       48
 28.920       44
 28.940       37
 28.960       40
 28.980       48
 29.000       38
 29.020       44
 29.040       42
 29.060       50
 29.080       32
 29.100       41
 29.120       48
 29.140       40
 29.160       56
 29.180       32
 29.200       46
 29.220       36
 29.240       41
 29.260       44
 29.280       49
 29.300       41
 29.320       44
 29.340       48
 29.360       41
 29.380       44
 29.400       41
 29.420       48
 29.440       35
 29.460       35
 29.480       44
 29.500       67
 29.520       50
 29.540       35
 29.560       45
 29.580       34
 29.600       44
 29.620       48
 29.640       38
 29.660       48
 29.680       48
 29.700       32
 29.720       38
 29.740       37
 29.760       50
 29.780       44
 29.800       31
 29.820       48
 29.840       42
 29.860       49
 29.880       44
 29.900       50
 29.920       59
 29.940       48
 29.960       36
 29.980       48
 30.000       50