File: 2021/xrd/raw_data/csv/#8137_4_40_R12_1_8_M15_P0026_T200 _1.csv
[Measurement conditions]
Sample identification,
Comment - 1,"Metodo 1"
Comment - 2,"Configuration=Stage flat sample, Owner=User-1, Creation date=18/05/2016 11:51:59 a.m."
Comment - 3,"Goniometer=Theta/Theta; Minimum step size 2Theta:0.0001; Minimum step size Omega:0.0001"
Comment - 4,"Sample stage=Stage for flat samples/holders"
Comment - 5,"Diffractometer system=EMPYREAN"
Comment - 6,"Measurement program=C:\PANalytical\Data Collector\Programs\4_40_R12_1_8_M15_P0026_T200 .xrdmp, Identifier={16617745-81AC-40A4-8377-9136E38050CA}"
Anode material,Cu
K-Alpha1 wavelength,1.5406
K-Alpha2 wavelength,1.54443
Ratio K-Alpha2/K-Alpha1,0.500
Divergence slit,Fixed,0.76mm
Monochromator used,NO
Generator voltage, 40
Tube current, 45
File date and time,09/ago/2021 13:19
Unit cell,
h k l, 0 0 0
Scan axis,Gonio
Scan range,3.9968,40
Scan step size,0.0262606
No. of points, 1371
Scan type,CONTINUOUS
Time per step,197.115
[Scan points]
Angle,Intensity
4.03,31767.3
4.056,30137.2
4.082,29007.9
4.108,28260.9
4.134,27774.6
4.16,27912.7
4.186,28424.0
4.212,29427.4
4.238,31098.4
4.264,33408.0
4.29,36767.4
4.316,41122.0
4.342,47234.4
4.368,55623.7
4.394,67029.5
4.42,82691.6
4.446,104040.2
4.472,131249.1
4.498,154171.3
4.524,154118.3
4.55,125461.8
4.576,87747.3
4.602,60424.9
4.628,45553.5
4.654,37985.6
4.68,33808.0
4.706,30758.5
4.732,28702.9
4.758,27328.5
4.784,26009.5
4.81,25065.3
4.836,24377.2
4.862,23921.6
4.888,23557.7
4.914,23095.3
4.94,22611.1
4.966,22559.7
4.992,22696.5
5.018,22281.1
5.044,21727.7
5.07,21503.0
5.096,21012.2
5.122,20315.3
5.148,19937.3
5.174,19473.2
5.2,19084.2
5.226,18783.3
5.252,18530.3
5.278,18336.6
5.304,17967.3
5.33,17890.6
5.356,17683.5
5.382,17528.4
5.408,17311.3
5.434,17271.5
5.46,17275.1
5.486,16948.9
5.512,16935.3
5.538,16670.9
5.564,16879.0
5.59,16806.3
5.616,16482.3
5.642,16407.1
5.668,16290.5
5.694,16286.7
5.72,16585.1
5.746,16340.9
5.772,16171.0
5.798,16326.4
5.824,16224.6
5.85,15954.4
5.876,16115.7
5.902,16247.1
5.928,16155.2
5.954,16201.6
5.98,15969.8
6.006,16257.3
6.032,16578.0
6.058,16632.5
6.084,16757.5
6.11,17036.6
6.136,17670.3
6.162,18271.1
6.188,19424.2
6.214,20569.1
6.24,22643.6
6.266,24767.1
6.292,29009.9
6.318,34943.2
6.344,42468.6
6.37,52521.1
6.396,59723.6
6.422,58127.1
6.448,47799.1
6.474,36407.3
6.5,29310.6
6.526,25654.0
6.552,23915.4
6.578,23270.7
6.604,22502.0
6.63,22125.6
6.656,21639.4
6.682,21416.2
6.708,21122.8
6.734,20702.2
6.76,20569.0
6.786,20487.1
6.812,20245.2
6.838,20002.9
6.864,19717.9
6.89,19741.5
6.916,19627.0
6.942,19481.2
6.968,19225.9
6.994,19070.0
7.02,19168.5
7.046,18863.7
7.072,18865.9
7.098,18573.8
7.124,18611.4
7.15,18601.6
7.176,18398.6
7.202,18283.2
7.228,18022.9
7.254,17870.7
7.28,17794.7
7.306,17759.8
7.332,17766.3
7.358,17696.1
7.384,17551.1
7.41,17378.4
7.436,17352.4
7.462,17423.5
7.488,17314.1
7.514,17306.9
7.54,17495.3
7.566,17572.1
7.592,17930.7
7.618,18399.2
7.644,18823.3
7.67,19802.8
7.696,21411.6
7.722,23778.4
7.748,27461.0
7.774,32706.6
7.8,40184.4
7.826,48883.4
7.852,53378.0
7.878,50330.6
7.904,39956.9
7.93,29634.5
7.956,22968.8
7.982,19604.0
8.008,18234.4
8.034,17351.1
8.06,16656.3
8.086,16223.4
8.112,16060.0
8.138,15628.1
8.164,15623.0
8.19,15476.5
8.216,15369.5
8.242,15169.9
8.268,15030.2
8.294,15047.9
8.32,14949.2
8.346,15019.4
8.372,14751.3
8.398,14688.0
8.424,14706.0
8.45,14787.8
8.476,14630.4
8.502,14468.2
8.528,14437.4
8.554,14401.6
8.58,14314.3
8.606,14253.0
8.632,14089.2
8.658,13988.2
8.684,14242.9
8.71,14214.7
8.736,14171.4
8.762,14064.6
8.788,14235.5
8.814,14192.4
8.84,14484.3
8.866,14929.6
8.892,15009.7
8.918,15714.2
8.944,16680.2
8.97,18491.0
8.996,20990.7
9.022,24981.8
9.048,29653.0
9.074,33048.4
9.1,31690.5
9.126,26435.8
9.152,20778.5
9.178,17425.0
9.204,15673.6
9.23,14927.8
9.256,14409.5
9.282,14007.5
9.308,13680.2
9.334,13524.0
9.36,13451.0
9.386,13447.7
9.412,13308.1
9.438,13096.3
9.464,13046.9
9.49,13060.8
9.516,13006.3
9.542,12855.1
9.568,12658.6
9.594,12662.0
9.62,12798.6
9.646,12746.6
9.672,12670.6
9.698,12643.0
9.724,12593.5
9.75,12561.4
9.776,12492.6
9.802,12466.9
9.828,12369.8
9.854,12252.6
9.88,12345.8
9.906,12396.9
9.932,12175.4
9.958,12090.3
9.984,12255.2
10.01,12358.3
10.036,12389.8
10.062,12575.9
10.088,13050.2
10.114,13639.4
10.14,14078.3
10.166,14153.9
10.192,13900.5
10.218,13249.9
10.244,12514.7
10.27,12361.3
10.296,12189.0
10.322,11835.4
10.348,11704.0
10.374,11696.2
10.4,11620.0
10.426,11640.3
10.452,11623.3
10.478,11394.6
10.504,11259.6
10.53,11390.6
10.556,11396.5
10.582,11368.3
10.608,11403.1
10.634,11194.2
10.66,11117.9
10.686,11163.3
10.712,11125.9
10.738,11080.9
10.764,11122.2
10.79,11202.2
10.816,11261.1
10.842,11102.4
10.868,11156.7
10.894,11276.7
10.92,11269.2
10.946,11178.7
10.972,11435.2
10.998,12174.7
11.024,12704.3
11.05,14211.7
11.076,16312.3
11.102,19348.6
11.128,21297.1
11.154,21363.4
11.18,19027.9
11.206,15622.6
11.232,12895.2
11.258,11658.8
11.284,11288.5
11.31,10718.1
11.336,10754.9
11.362,10517.4
11.388,10227.9
11.414,10418.5
11.44,10338.2
11.466,10204.1
11.492,10195.8
11.518,10236.8
11.544,10035.7
11.57,10089.2
11.596,10181.4
11.622,10032.6
11.648,9967.7
11.674,9972.0
11.7,9760.5
11.726,9880.3
11.752,9880.5
11.778,9688.1
11.804,9791.5
11.83,9698.3
11.856,9822.4
11.882,9804.3
11.908,9712.3
11.934,9585.8
11.96,9576.1
11.986,9657.1
12.012,9681.8
12.038,9573.4
12.064,9478.7
12.09,9362.7
12.116,9434.7
12.142,9509.7
12.168,9492.3
12.194,9323.0
12.22,9348.2
12.246,9393.7
12.272,9450.2
12.298,9456.9
12.324,9379.9
12.35,9368.3
12.376,9302.6
12.402,9129.3
12.428,9130.7
12.454,9193.0
12.48,9271.6
12.506,9283.7
12.532,9162.4
12.558,9136.7
12.584,9232.5
12.61,9187.2
12.636,9038.6
12.662,9049.6
12.688,9142.7
12.714,9113.0
12.74,9072.3
12.766,9111.4
12.792,8954.1
12.818,8895.4
12.844,9052.4
12.87,9007.7
12.896,9022.7
12.922,9017.4
12.948,8982.2
12.974,8937.1
13,8819.1
13.026,8747.5
13.052,8758.6
13.078,8884.5
13.104,8826.0
13.13,8758.7
13.156,8862.4
13.182,8898.7
13.208,8864.6
13.234,8845.6
13.26,8815.2
13.286,8871.0
13.312,8689.2
13.338,8850.4
13.364,8924.2
13.39,8921.8
13.416,8977.5
13.442,9129.1
13.468,9125.0
13.494,9323.5
13.52,9569.8
13.546,10408.4
13.572,11503.9
13.598,12994.4
13.624,15672.7
13.65,17695.6
13.676,18385.9
13.702,16974.2
13.728,13636.3
13.754,11365.5
13.78,9862.8
13.806,9403.5
13.832,9008.0
13.858,8716.3
13.884,8595.3
13.91,8673.5
13.936,8595.3
13.962,8642.7
13.988,8649.8
14.014,8584.2
14.04,8357.2
14.066,8413.1
14.092,8471.6
14.118,8441.3
14.144,8325.8
14.17,8288.1
14.196,8270.0
14.222,8187.5
14.248,7994.4
14.274,8087.4
14.3,8242.3
14.326,8337.1
14.352,8301.5
14.378,8146.7
14.404,8325.8
14.43,8299.1
14.456,8253.9
14.482,8304.4
14.508,8157.2
14.534,8216.6
14.56,8195.3
14.586,8167.9
14.612,8122.2
14.638,8056.6
14.664,7881.7
14.69,8000.8
14.716,8032.3
14.742,8100.6
14.768,8084.0
14.794,8037.6
14.82,7890.0
14.846,7771.3
14.872,7879.2
14.898,7997.5
14.924,7991.1
14.95,7953.7
14.976,7921.5
15.002,7908.7
15.028,7973.5
15.054,8043.7
15.08,7940.1
15.106,7870.6
15.132,7974.5
15.158,7954.0
15.184,7885.7
15.21,7869.1
15.236,7799.4
15.262,7683.1
15.288,7719.3
15.314,7742.9
15.34,7643.9
15.366,7740.5
15.392,7796.2
15.418,7734.2
15.444,7758.6
15.47,7888.4
15.496,7835.2
15.522,7759.6
15.548,7807.3
15.574,7796.1
15.6,7773.2
15.626,7870.4
15.652,7855.6
15.678,7812.0
15.704,7877.2
15.73,8066.1
15.756,8221.7
15.782,8394.6
15.808,8465.7
15.834,8347.5
15.86,8196.8
15.886,8039.8
15.912,7812.7
15.938,7715.8
15.964,7801.3
15.99,7805.4
16.016,7853.1
16.042,7776.6
16.068,7649.3
16.094,7775.0
16.12,7679.8
16.146,7631.9
16.172,7571.5
16.198,7708.1
16.224,7763.5
16.25,7775.7
16.276,7647.9
16.302,7817.9
16.328,7718.8
16.354,7766.1
16.38,7729.9
16.406,7873.7
16.432,7821.1
16.458,7852.2
16.484,7727.4
16.51,7848.0
16.536,7817.3
16.562,7700.2
16.588,7695.1
16.614,7896.0
16.64,7610.8
16.666,7698.7
16.692,7683.6
16.718,7658.9
16.744,7756.4
16.77,7667.6
16.796,7730.2
16.822,7524.6
16.848,7634.7
16.874,7673.1
16.9,7756.2
16.926,7706.8
16.952,7686.7
16.978,7740.1
17.004,7702.4
17.03,7738.4
17.056,7863.4
17.082,7802.1
17.108,7859.0
17.134,7762.4
17.16,7735.5
17.186,7821.5
17.212,7700.3
17.238,7561.3
17.264,7603.9
17.29,7673.4
17.316,7717.1
17.342,7720.1
17.368,7709.9
17.394,7803.3
17.42,7801.6
17.446,7755.0
17.472,7769.4
17.498,7762.1
17.524,7717.0
17.55,7631.7
17.576,7729.4
17.602,7747.2
17.628,7643.1
17.654,7617.7
17.68,7584.4
17.706,7601.7
17.732,7624.2
17.758,7575.5
17.784,7509.4
17.81,7599.3
17.836,7684.3
17.862,7714.0
17.888,7747.0
17.914,7697.0
17.94,7662.1
17.966,7650.5
17.992,7682.5
18.018,7690.1
18.044,7729.4
18.07,7750.7
18.096,7766.4
18.122,7872.1
18.148,7811.1
18.174,7765.0
18.2,7943.9
18.226,8119.2
18.252,8314.0
18.278,8455.5
18.304,8281.3
18.33,8128.6
18.356,8005.6
18.382,7927.4
18.408,7858.9
18.434,7760.1
18.46,7851.5
18.486,7898.8
18.512,7789.3
18.538,7698.6
18.564,7731.0
18.59,7830.0
18.616,7942.0
18.642,7808.2
18.668,7827.2
18.694,7940.8
18.72,8097.0
18.746,8196.7
18.772,8557.5
18.798,8987.3
18.824,9244.5
18.85,9424.9
18.876,9382.0
18.902,9089.1
18.928,8499.8
18.954,8202.3
18.98,8142.9
19.006,7779.0
19.032,7875.0
19.058,7871.4
19.084,7787.1
19.11,7841.4
19.136,7888.0
19.162,8042.4
19.188,7823.6
19.214,7892.7
19.24,7816.3
19.266,7743.7
19.292,7763.5
19.318,7812.4
19.344,8002.8
19.37,7993.5
19.396,7989.2
19.422,7927.6
19.448,7967.5
19.474,7907.0
19.5,7969.3
19.526,7964.0
19.552,7923.2
19.578,7975.0
19.604,8007.5
19.63,8078.5
19.656,8076.4
19.682,7970.0
19.708,8095.3
19.734,8048.5
19.76,8009.1
19.786,7988.5
19.812,8017.8
19.838,7951.7
19.864,8125.8
19.89,8475.9
19.916,8393.0
19.942,8475.7
19.968,8410.6
19.994,8419.2
20.02,8303.4
20.046,8034.3
20.072,7899.9
20.098,8056.5
20.124,8092.0
20.15,8249.8
20.176,8290.0
20.202,8223.3
20.228,8197.9
20.254,8181.6
20.28,8112.0
20.306,8172.2
20.332,8308.1
20.358,8465.9
20.384,8693.4
20.41,9066.7
20.436,9373.4
20.462,9341.7
20.488,9216.6
20.514,9018.1
20.54,8763.3
20.566,8660.3
20.592,8475.3
20.618,8275.6
20.644,8306.3
20.67,8276.7
20.696,8228.0
20.722,8251.3
20.748,8208.7
20.774,8271.5
20.8,8381.9
20.826,8477.7
20.852,8597.2
20.878,8785.9
20.904,9268.7
20.93,9877.3
20.956,10358.4
20.982,10592.6
21.008,10387.4
21.034,9817.5
21.06,9240.3
21.086,8713.4
21.112,8419.7
21.138,8317.6
21.164,8223.7
21.19,8267.6
21.216,8280.2
21.242,7986.6
21.268,8165.5
21.294,8136.1
21.32,8210.2
21.346,8398.1
21.372,8440.1
21.398,8515.1
21.424,8693.0
21.45,8968.4
21.476,9049.0
21.502,8915.6
21.528,8735.7
21.554,8355.0
21.58,8257.5
21.606,8255.8
21.632,8322.9
21.658,8063.1
21.684,8243.4
21.71,8113.9
21.736,8054.4
21.762,8383.1
21.788,8130.3
21.814,8222.8
21.84,8268.5
21.866,8005.7
21.892,8167.4
21.918,8054.2
21.944,7905.9
21.97,7933.6
21.996,8127.7
22.022,8052.7
22.048,7862.6
22.074,8017.4
22.1,8009.9
22.126,8200.7
22.152,8126.1
22.178,8061.7
22.204,8195.5
22.23,8085.0
22.256,8204.4
22.282,8137.8
22.308,7924.2
22.334,8222.2
22.36,8444.8
22.386,8615.6
22.412,8936.7
22.438,9217.8
22.464,9095.8
22.49,8906.6
22.516,8714.6
22.542,8370.3
22.568,8081.1
22.594,8080.1
22.62,8034.6
22.646,7954.1
22.672,7983.0
22.698,7998.5
22.724,8000.2
22.75,7881.6
22.776,7994.0
22.802,7972.3
22.828,8017.9
22.854,8080.2
22.88,8029.9
22.906,8061.5
22.932,8151.1
22.958,8165.0
22.984,8101.1
23.01,8119.2
23.036,8021.8
23.062,7893.5
23.088,7876.5
23.114,7848.9
23.14,7874.6
23.166,7893.1
23.192,7917.5
23.218,7942.9
23.244,8012.6
23.27,8135.2
23.296,8338.2
23.322,8799.7
23.348,9293.9
23.374,9512.0
23.4,9277.8
23.426,9080.3
23.452,8696.3
23.478,8270.7
23.504,7959.1
23.53,7892.6
23.556,7873.9
23.582,7711.5
23.608,7632.1
23.634,7596.5
23.66,7670.4
23.686,7667.6
23.712,7766.4
23.738,7717.5
23.764,7817.1
23.79,7709.3
23.816,7775.3
23.842,7746.2
23.868,7673.7
23.894,7607.3
23.92,7763.3
23.946,7597.2
23.972,7638.8
23.998,7610.1
24.024,7449.9
24.05,7486.8
24.076,7475.6
24.102,7467.3
24.128,7570.7
24.154,7688.4
24.18,7438.9
24.206,7523.4
24.232,7514.1
24.258,7513.2
24.284,7477.3
24.31,7542.6
24.336,7564.8
24.362,7353.7
24.388,7496.3
24.414,7554.1
24.44,7422.4
24.466,7587.0
24.492,7587.3
24.518,7546.3
24.544,7493.5
24.57,7408.5
24.596,7520.1
24.622,7615.2
24.648,7666.1
24.674,7704.7
24.7,7821.1
24.726,7914.1
24.752,7669.1
24.778,7572.7
24.804,7584.7
24.83,7606.4
24.856,7488.3
24.882,7583.6
24.908,7475.2
24.934,7336.9
24.96,7253.1
24.986,7345.1
25.012,7458.2
25.038,7354.8
25.064,7396.5
25.09,7465.5
25.116,7619.2
25.142,7702.3
25.168,7687.5
25.194,7576.3
25.22,7547.3
25.246,7478.2
25.272,7340.0
25.298,7427.9
25.324,7490.6
25.35,7324.8
25.376,7254.5
25.402,7255.0
25.428,7359.7
25.454,7356.6
25.48,7267.5
25.506,7421.5
25.532,7423.0
25.558,7345.5
25.584,7292.0
25.61,7247.7
25.636,7294.0
25.662,7335.8
25.688,7231.7
25.714,7110.0
25.74,7136.3
25.766,7208.7
25.792,7223.5
25.818,7175.5
25.844,7157.1
25.87,7250.5
25.896,7361.6
25.922,7281.2
25.948,7303.9
25.974,7289.9
26,7165.9
26.026,7325.3
26.052,7266.4
26.078,7196.1
26.104,7252.9
26.13,7232.8
26.156,7152.4
26.182,7236.8
26.208,7319.5
26.234,7237.3
26.26,7189.8
26.286,7153.1
26.312,7305.8
26.338,7421.0
26.364,7458.6
26.39,7488.9
26.416,7508.4
26.442,7364.9
26.468,7261.7
26.494,7239.5
26.52,7289.4
26.546,7232.5
26.572,7214.6
26.598,7219.7
26.624,7153.6
26.65,7232.0
26.676,7356.9
26.702,7086.3
26.728,7600.9
26.754,7846.2
26.78,7767.4
26.806,7847.8
26.832,7817.6
26.858,7765.9
26.884,7489.9
26.91,7387.8
26.936,7120.0
26.962,7291.5
26.988,7329.4
27.014,7109.6
27.04,7169.9
27.066,7190.5
27.092,7305.6
27.118,7147.0
27.144,7456.0
27.17,7679.4
27.196,7740.2
27.222,7677.3
27.248,7495.7
27.274,7381.4
27.3,7214.5
27.326,7158.2
27.352,7194.5
27.378,7118.2
27.404,7082.9
27.43,6985.6
27.456,7011.5
27.482,7071.5
27.508,6992.9
27.534,6991.7
27.56,7102.1
27.586,7074.5
27.612,7080.9
27.638,7052.5
27.664,6952.4
27.69,6903.6
27.716,6955.7
27.742,6952.3
27.768,7002.6
27.794,6977.9
27.82,7008.8
27.846,7076.2
27.872,7084.4
27.898,7312.0
27.924,7537.0
27.95,7693.4
27.976,7780.4
28.002,7674.2
28.028,7587.3
28.054,7412.9
28.08,7163.6
28.106,6945.8
28.132,6934.7
28.158,6802.5
28.184,6753.4
28.21,6834.6
28.236,6782.1
28.262,6748.3
28.288,6829.0
28.314,6939.7
28.34,6940.6
28.366,6920.9
28.392,6953.5
28.418,6925.9
28.444,6878.5
28.47,6803.5
28.496,6755.5
28.522,6729.2
28.548,6613.4
28.574,6633.3
28.6,6633.7
28.626,6639.2
28.652,6612.1
28.678,6436.1
28.704,6520.9
28.73,6602.6
28.756,6650.5
28.782,6563.1
28.808,6572.9
28.834,6668.3
28.86,6560.4
28.886,6514.2
28.912,6548.6
28.938,6573.9
28.964,6536.2
28.99,6582.4
29.016,6641.9
29.042,6666.7
29.068,6523.9
29.094,6600.6
29.12,6792.0
29.146,6771.9
29.172,6588.3
29.198,6537.3
29.224,6614.9
29.25,6577.8
29.276,6602.7
29.302,6419.7
29.328,6535.2
29.354,6654.4
29.38,6626.2
29.406,6707.9
29.432,7152.7
29.458,7131.2
29.484,7277.4
29.51,7313.2
29.536,7096.0
29.562,6840.0
29.588,6791.2
29.614,6714.9
29.64,6550.5
29.666,6536.2
29.692,6556.4
29.718,6338.8
29.744,6342.4
29.77,6442.8
29.796,6267.4
29.822,6428.1
29.848,6409.3
29.874,6195.1
29.9,6211.2
29.926,6167.5
29.952,6312.7
29.978,6178.2
30.004,6291.0
30.03,6197.1
30.056,6060.2
30.082,6190.7
30.108,6349.1
30.134,6231.2
30.16,6309.9
30.186,6237.5
30.212,6219.8
30.238,6181.8
30.264,6062.1
30.29,6226.1
30.316,6152.1
30.342,6043.6
30.368,6029.1
30.394,6190.2
30.42,6078.2
30.446,5995.6
30.472,6063.3
30.498,6140.1
30.524,6249.6
30.55,6280.6
30.576,6285.3
30.602,6335.4
30.628,6189.2
30.654,6089.5
30.68,6118.8
30.706,6055.6
30.732,5958.8
30.758,5972.4
30.784,6007.7
30.81,5991.0
30.836,6033.2
30.862,5971.3
30.888,5938.9
30.914,6032.8
30.94,6000.2
30.966,5961.8
30.992,5912.5
31.018,5859.8
31.044,5854.0
31.07,5844.7
31.096,5854.3
31.122,5838.9
31.148,5845.3
31.174,5830.6
31.2,5931.4
31.226,6001.2
31.252,6026.5
31.278,6029.5
31.304,5957.1
31.33,5885.7
31.356,5930.9
31.382,5819.0
31.408,5682.0
31.434,5785.6
31.46,5776.1
31.486,5757.6
31.512,5743.1
31.538,5767.0
31.564,5759.6
31.59,5741.2
31.616,5731.4
31.642,5694.5
31.668,5788.9
31.694,5811.3
31.72,5822.1
31.746,5738.7
31.772,5763.0
31.798,5775.9
31.824,5445.4
31.85,5469.9
31.876,5661.8
31.902,5652.1
31.928,5510.9
31.954,5559.0
31.98,5833.8
32.006,5747.4
32.032,5544.9
32.058,5555.7
32.084,5548.4
32.11,5488.6
32.136,5461.2
32.162,5468.4
32.188,5515.3
32.214,5533.1
32.24,5539.0
32.266,5622.0
32.292,5522.2
32.318,5638.2
32.344,5422.4
32.37,5464.2
32.396,5509.3
32.422,5653.2
32.448,5415.8
32.474,5489.5
32.5,5581.7
32.526,5374.0
32.552,5471.9
32.578,5619.4
32.604,5682.8
32.63,5677.3
32.656,5814.4
32.682,5719.8
32.708,5718.8
32.734,5630.0
32.76,5460.0
32.786,5347.1
32.812,5347.3
32.838,5323.7
32.864,5448.8
32.89,5415.9
32.916,5395.4
32.942,5349.5
32.968,5505.7
32.994,5383.9
33.02,5425.5
33.046,5311.5
33.072,5243.4
33.098,5377.5
33.124,5219.2
33.15,5222.9
33.176,5318.7
33.202,5224.0
33.228,5236.3
33.254,5192.9
33.28,5155.5
33.306,5203.3
33.332,5225.3
33.358,5177.7
33.384,5109.8
33.41,5137.0
33.436,5125.2
33.462,5197.2
33.488,5180.3
33.514,5170.4
33.54,5239.4
33.566,5230.2
33.592,5153.4
33.618,5114.9
33.644,5185.9
33.67,5221.0
33.696,5193.3
33.722,5108.3
33.748,5070.7
33.774,5037.2
33.8,5114.4
33.826,5166.3
33.852,5098.8
33.878,5065.1
33.904,5075.2
33.93,5082.5
33.956,5220.2
33.982,5260.7
34.008,5259.3
34.034,5193.7
34.06,5136.2
34.086,5090.4
34.112,4990.9
34.138,4948.8
34.164,5035.5
34.19,4870.6
34.216,4842.4
34.242,4853.5
34.268,4866.6
34.294,4851.4
34.32,4808.4
34.346,4928.5
34.372,4894.7
34.398,4860.4
34.424,4916.0
34.45,4845.7
34.476,4901.2
34.502,4742.9
34.528,4860.5
34.554,4907.4
34.58,4757.2
34.606,4772.0
34.632,4888.9
34.658,4812.7
34.684,4682.2
34.71,4782.7
34.736,4762.4
34.762,4810.1
34.788,4762.7
34.814,4938.4
34.84,4960.8
34.866,4933.1
34.892,4740.6
34.918,4963.6
34.944,4888.8
34.97,4812.3
34.996,4849.7
35.022,4868.9
35.048,4845.9
35.074,4811.9
35.1,4749.1
35.126,4799.5
35.152,4801.6
35.178,4765.9
35.204,4754.1
35.23,4717.0
35.256,4818.6
35.282,4826.3
35.308,4792.5
35.334,4777.8
35.36,4704.9
35.386,4672.8
35.412,4758.0
35.438,4705.0
35.464,4631.5
35.49,4795.7
35.516,4831.3
35.542,4854.3
35.568,4779.0
35.594,4780.1
35.62,4774.6
35.646,4692.2
35.672,4719.9
35.698,4610.5
35.724,4525.3
35.75,4565.7
35.776,4623.8
35.802,4669.8
35.828,4593.5
35.854,4587.3
35.88,4671.2
35.906,4709.0
35.932,4633.2
35.958,4577.8
35.984,4574.2
36.01,4548.5
36.036,4517.4
36.062,4502.1
36.088,4560.0
36.114,4538.0
36.14,4492.5
36.166,4534.0
36.192,4568.7
36.218,4540.9
36.244,4473.6
36.27,4466.0
36.296,4479.1
36.322,4455.5
36.348,4414.1
36.374,4410.0
36.4,4452.2
36.426,4436.9
36.452,4392.9
36.478,4391.1
36.504,4393.2
36.53,4519.9
36.556,4493.9
36.582,4457.8
36.608,4413.9
36.634,4443.2
36.66,4381.4
36.686,4310.7
36.712,4308.8
36.738,4351.2
36.764,4394.4
36.79,4338.2
36.816,4389.5
36.842,4398.2
36.868,4446.8
36.894,4343.7
36.92,4329.9
36.946,4345.7
36.972,4394.7
36.998,4237.1
37.024,4361.1
37.05,4357.9
37.076,4388.3
37.102,4378.0
37.128,4315.6
37.154,4364.8
37.18,4269.5
37.206,4254.9
37.232,4236.1
37.258,4318.1
37.284,4347.8
37.31,4299.3
37.336,4362.0
37.362,4367.0
37.388,4472.5
37.414,4371.9
37.44,4367.5
37.466,4471.4
37.492,4340.8
37.518,4174.6
37.544,4300.6
37.57,4283.7
37.596,4364.1
37.622,4303.8
37.648,4220.5
37.674,4376.8
37.7,4343.3
37.726,4343.5
37.752,4211.5
37.778,4307.5
37.804,4308.0
37.83,4138.1
37.856,4201.0
37.882,4165.3
37.908,4095.8
37.934,4103.0
37.96,4155.1
37.986,4175.7
38.012,4067.4
38.038,4149.8
38.064,4142.0
38.09,4071.2
38.116,4023.5
38.142,4089.4
38.168,4157.0
38.194,4108.1
38.22,4050.3
38.246,4119.7
38.272,4138.0
38.298,4093.2
38.324,4107.8
38.35,4079.0
38.376,4091.8
38.402,4102.2
38.428,4047.7
38.454,4123.1
38.48,4231.3
38.506,4257.6
38.532,4228.5
38.558,4107.8
38.584,4126.7
38.61,4242.4
38.636,4305.7
38.662,4208.2
38.688,4132.0
38.714,4136.8
38.74,4164.9
38.766,4121.2
38.792,4141.1
38.818,4201.9
38.844,4140.0
38.87,4058.9
38.896,3988.0
38.922,4055.5
38.948,4112.8
38.974,4069.4
39,4031.1
39.026,3982.3
39.052,4005.2
39.078,3982.5
39.104,3948.9
39.13,4062.7
39.156,4143.1
39.182,4108.0
39.208,4080.5
39.234,4104.0
39.26,4131.9
39.286,4161.9
39.312,4077.8
39.338,4018.7
39.364,4046.8
39.39,4061.1
39.416,4051.5
39.442,4134.2
39.468,4093.8
39.494,4133.7
39.52,4263.3
39.546,4150.3
39.572,4066.6
39.598,4055.3
39.624,4232.8
39.65,4198.8
39.676,4081.3
39.702,4083.6
39.728,4095.2
39.754,4144.1
39.78,4140.5
39.806,4152.2
39.832,4111.2
39.858,4218.6
39.884,4114.9
39.91,4009.4
39.936,4116.3
39.962,4093.4