File: 2021/xrd/raw_data/csv/#8139_4_40_R12_1_8_M15_P0026_T200 _1.csv
[Measurement conditions]
Sample identification,
Comment - 1,"Metodo 1"
Comment - 2,"Configuration=Stage flat sample, Owner=User-1, Creation date=18/05/2016 11:51:59 a.m."
Comment - 3,"Goniometer=Theta/Theta; Minimum step size 2Theta:0.0001; Minimum step size Omega:0.0001"
Comment - 4,"Sample stage=Stage for flat samples/holders"
Comment - 5,"Diffractometer system=EMPYREAN"
Comment - 6,"Measurement program=C:\PANalytical\Data Collector\Programs\4_40_R12_1_8_M15_P0026_T200 .xrdmp, Identifier={16617745-81AC-40A4-8377-9136E38050CA}"
Anode material,Cu
K-Alpha1 wavelength,1.5406
K-Alpha2 wavelength,1.54443
Ratio K-Alpha2/K-Alpha1,0.500
Divergence slit,Fixed,0.76mm
Monochromator used,NO
Generator voltage, 40
Tube current, 45
File date and time,09/ago/2021 14:03
Unit cell,
h k l, 0 0 0
Scan axis,Gonio
Scan range,3.9968,40
Scan step size,0.0262606
No. of points, 1371
Scan type,CONTINUOUS
Time per step,197.115
[Scan points]
Angle,Intensity
4.03,31959.9
4.056,29528.2
4.082,28073.9
4.108,27328.8
4.134,26256.0
4.16,25598.1
4.186,25137.1
4.212,25022.4
4.238,24645.7
4.264,24747.8
4.29,24851.1
4.316,25297.5
4.342,25923.6
4.368,26816.3
4.394,28257.9
4.42,30130.1
4.446,32803.4
4.472,36496.9
4.498,41548.7
4.524,48127.0
4.55,56473.6
4.576,64988.0
4.602,71335.9
4.628,73478.6
4.654,70623.8
4.68,63358.8
4.706,53380.8
4.732,43822.1
4.758,36556.8
4.784,31538.4
4.81,28322.6
4.836,26259.0
4.862,25078.9
4.888,24563.6
4.914,24186.1
4.94,23768.5
4.966,23201.7
4.992,22671.5
5.018,22345.4
5.044,22104.1
5.07,22081.0
5.096,21946.6
5.122,21784.4
5.148,21438.4
5.174,21408.0
5.2,21222.2
5.226,21010.7
5.252,20915.5
5.278,20592.2
5.304,20493.2
5.33,20379.6
5.356,20386.1
5.382,20067.3
5.408,19969.8
5.434,19748.6
5.46,19606.1
5.486,19351.1
5.512,19253.3
5.538,19147.2
5.564,19319.0
5.59,19115.8
5.616,18769.4
5.642,18967.4
5.668,18792.6
5.694,18784.6
5.72,18494.6
5.746,18473.7
5.772,18551.5
5.798,18378.1
5.824,18233.0
5.85,18288.1
5.876,18113.1
5.902,18277.1
5.928,18079.0
5.954,18283.0
5.98,17892.0
6.006,17794.9
6.032,17882.0
6.058,17924.6
6.084,17778.9
6.11,17680.9
6.136,17835.5
6.162,17842.0
6.188,17912.6
6.214,17913.3
6.24,18292.4
6.266,18508.1
6.292,19179.2
6.318,20047.6
6.344,21153.1
6.37,22500.9
6.396,24591.3
6.422,26950.0
6.448,29702.9
6.474,31916.9
6.5,33256.7
6.526,33056.8
6.552,31282.9
6.578,28658.7
6.604,25464.7
6.63,22837.6
6.656,20994.4
6.682,19938.9
6.708,19381.6
6.734,19147.3
6.76,18823.3
6.786,18773.4
6.812,18611.5
6.838,18417.3
6.864,18290.2
6.89,18417.1
6.916,18315.0
6.942,18365.3
6.968,18462.9
6.994,18345.2
7.02,18162.2
7.046,18283.4
7.072,18333.4
7.098,17969.7
7.124,17795.3
7.15,17767.9
7.176,17758.4
7.202,17750.7
7.228,17649.0
7.254,17550.2
7.28,17468.7
7.306,17242.5
7.332,17006.0
7.358,17078.9
7.384,17112.5
7.41,16994.3
7.436,16954.6
7.462,16869.1
7.488,16711.7
7.514,16607.9
7.54,16707.8
7.566,16727.6
7.592,16476.2
7.618,16320.6
7.644,16333.0
7.67,16278.5
7.696,16512.3
7.722,16828.5
7.748,17287.0
7.774,17995.8
7.8,18863.1
7.826,20053.7
7.852,21803.8
7.878,23586.2
7.904,25773.9
7.93,27081.8
7.956,27331.4
7.982,26668.8
8.008,25084.8
8.034,22593.1
8.06,19810.3
8.086,17922.0
8.112,16505.7
8.138,15806.4
8.164,15569.1
8.19,15278.6
8.216,15001.6
8.242,14799.2
8.268,14664.0
8.294,14391.8
8.32,14492.6
8.346,14416.0
8.372,14395.2
8.398,14089.4
8.424,14007.5
8.45,13893.5
8.476,13969.6
8.502,13947.2
8.528,13893.2
8.554,13718.1
8.58,13742.1
8.606,13569.1
8.632,13411.2
8.658,13562.7
8.684,13424.7
8.71,13423.0
8.736,13212.9
8.762,13264.5
8.788,13328.7
8.814,13294.5
8.84,13245.6
8.866,13047.2
8.892,13240.8
8.918,13414.8
8.944,13211.5
8.97,13550.6
8.996,13764.4
9.022,14493.5
9.048,15421.7
9.074,16746.1
9.1,18182.9
9.126,19091.7
9.152,20329.9
9.178,20519.8
9.204,19872.0
9.23,18647.4
9.256,16966.3
9.282,15381.2
9.308,14253.5
9.334,13462.9
9.36,12781.9
9.386,12301.8
9.412,12254.9
9.438,12204.6
9.464,11936.2
9.49,11854.8
9.516,11870.7
9.542,11854.5
9.568,11609.4
9.594,11609.9
9.62,11584.5
9.646,11522.4
9.672,11476.8
9.698,11413.3
9.724,11377.2
9.75,11444.0
9.776,11393.4
9.802,11329.6
9.828,11300.7
9.854,11154.8
9.88,11187.1
9.906,11141.4
9.932,11091.7
9.958,11140.3
9.984,11008.9
10.01,10975.3
10.036,11045.6
10.062,10928.3
10.088,10811.4
10.114,10993.0
10.14,11197.8
10.166,11373.8
10.192,11606.7
10.218,11803.7
10.244,11906.5
10.27,11641.7
10.296,11438.2
10.322,11243.0
10.348,11109.9
10.374,10937.3
10.4,10725.7
10.426,10478.1
10.452,10381.3
10.478,10386.6
10.504,10311.4
10.53,10358.7
10.556,10296.1
10.582,10194.7
10.608,10196.5
10.634,10294.8
10.66,10219.6
10.686,9990.6
10.712,10039.9
10.738,10051.9
10.764,10107.8
10.79,10071.1
10.816,10008.0
10.842,9885.3
10.868,9654.2
10.894,9829.8
10.92,9833.1
10.946,9674.7
10.972,9706.2
10.998,9866.9
11.024,9989.7
11.05,10106.5
11.076,10120.1
11.102,10794.2
11.128,11501.9
11.154,12090.8
11.18,12705.6
11.206,12991.1
11.232,12918.3
11.258,12747.9
11.284,12051.9
11.31,11406.1
11.336,10639.6
11.362,10165.9
11.388,9599.2
11.414,9702.7
11.44,9321.4
11.466,9245.0
11.492,9281.3
11.518,9186.2
11.544,9082.7
11.57,9008.2
11.596,9219.2
11.622,9207.5
11.648,9063.0
11.674,8989.2
11.7,9042.0
11.726,8979.5
11.752,8895.3
11.778,8950.2
11.804,9142.4
11.83,8964.9
11.856,8977.3
11.882,8806.8
11.908,8740.7
11.934,8790.4
11.96,8782.2
11.986,8877.1
12.012,8999.3
12.038,8875.5
12.064,8829.2
12.09,8721.4
12.116,8738.2
12.142,8732.9
12.168,8663.9
12.194,8684.7
12.22,8731.7
12.246,8556.0
12.272,8513.7
12.298,8604.7
12.324,8613.8
12.35,8606.7
12.376,8584.2
12.402,8548.1
12.428,8546.6
12.454,8469.3
12.48,8434.6
12.506,8514.8
12.532,8460.3
12.558,8375.1
12.584,8348.0
12.61,8325.3
12.636,8305.3
12.662,8351.4
12.688,8341.6
12.714,8292.5
12.74,8371.5
12.766,8353.7
12.792,8251.1
12.818,8207.5
12.844,8270.9
12.87,8307.2
12.896,8386.6
12.922,8278.8
12.948,8291.4
12.974,8278.1
13,8294.3
13.026,8258.6
13.052,8202.5
13.078,8283.6
13.104,8294.2
13.13,8068.8
13.156,8081.5
13.182,7991.8
13.208,7981.4
13.234,8004.7
13.26,8175.6
13.286,8150.2
13.312,8070.8
13.338,8015.3
13.364,8167.6
13.39,8061.4
13.416,8202.7
13.442,8275.3
13.468,8205.0
13.494,8022.1
13.52,8105.4
13.546,8174.9
13.572,8235.1
13.598,8404.4
13.624,8961.1
13.65,9662.6
13.676,10250.3
13.702,10790.8
13.728,11329.6
13.754,11633.2
13.78,11298.7
13.806,10503.5
13.832,9981.4
13.858,9239.4
13.884,8471.6
13.91,8352.7
13.936,8229.0
13.962,8106.2
13.988,7891.9
14.014,8080.5
14.04,7942.7
14.066,7865.8
14.092,7986.7
14.118,7977.8
14.144,7745.4
14.17,7736.2
14.196,7821.2
14.222,7860.9
14.248,7871.9
14.274,7882.4
14.3,7863.7
14.326,7754.0
14.352,7863.4
14.378,7772.8
14.404,7650.2
14.43,7745.5
14.456,7687.2
14.482,7659.1
14.508,7728.4
14.534,7740.9
14.56,7575.4
14.586,7559.0
14.612,7718.9
14.638,7634.4
14.664,7608.7
14.69,7645.4
14.716,7560.6
14.742,7611.0
14.768,7559.4
14.794,7585.8
14.82,7579.7
14.846,7551.8
14.872,7411.5
14.898,7480.1
14.924,7612.8
14.95,7564.6
14.976,7522.6
15.002,7548.8
15.028,7562.9
15.054,7491.2
15.08,7423.0
15.106,7399.0
15.132,7448.7
15.158,7441.9
15.184,7589.6
15.21,7715.3
15.236,7567.8
15.262,7559.3
15.288,7476.3
15.314,7391.3
15.34,7436.7
15.366,7397.9
15.392,7439.7
15.418,7473.4
15.444,7516.0
15.47,7420.6
15.496,7372.6
15.522,7363.8
15.548,7297.8
15.574,7390.2
15.6,7447.7
15.626,7470.3
15.652,7472.9
15.678,7321.2
15.704,7333.9
15.73,7411.6
15.756,7451.0
15.782,7625.3
15.808,7648.9
15.834,7611.9
15.86,7602.2
15.886,7719.5
15.912,7755.9
15.938,7637.5
15.964,7468.1
15.99,7513.6
16.016,7350.2
16.042,7415.4
16.068,7364.0
16.094,7397.8
16.12,7389.0
16.146,7222.0
16.172,7363.9
16.198,7296.5
16.224,7331.5
16.25,7240.9
16.276,7322.3
16.302,7257.4
16.328,7278.2
16.354,7195.9
16.38,7305.1
16.406,7361.9
16.432,7334.3
16.458,7286.8
16.484,7507.4
16.51,7452.0
16.536,7422.3
16.562,7427.9
16.588,7560.2
16.614,7551.5
16.64,7356.8
16.666,7302.7
16.692,7360.6
16.718,7244.2
16.744,7267.8
16.77,7310.7
16.796,7171.3
16.822,7180.5
16.848,7223.3
16.874,7288.5
16.9,7186.3
16.926,7289.2
16.952,7191.2
16.978,7295.4
17.004,7277.5
17.03,7415.6
17.056,7281.5
17.082,7421.1
17.108,7417.9
17.134,7173.7
17.16,7193.4
17.186,7330.8
17.212,7314.4
17.238,7347.1
17.264,7345.6
17.29,7223.0
17.316,7233.3
17.342,7356.8
17.368,7265.8
17.394,7239.2
17.42,7272.1
17.446,7286.7
17.472,7233.9
17.498,7201.0
17.524,7231.1
17.55,7341.9
17.576,7250.3
17.602,7153.4
17.628,7190.2
17.654,7221.3
17.68,7247.5
17.706,7226.9
17.732,7196.5
17.758,7201.2
17.784,7208.1
17.81,7237.3
17.836,7303.6
17.862,7284.8
17.888,7163.9
17.914,7192.3
17.94,7353.5
17.966,7331.8
17.992,7210.5
18.018,7204.2
18.044,7240.2
18.07,7276.6
18.096,7246.3
18.122,7221.9
18.148,7259.5
18.174,7269.9
18.2,7239.7
18.226,7165.9
18.252,7209.0
18.278,7412.1
18.304,7524.2
18.33,7375.6
18.356,7398.2
18.382,7609.1
18.408,7515.5
18.434,7257.8
18.46,7178.5
18.486,7271.4
18.512,7165.9
18.538,7189.6
18.564,7244.4
18.59,7218.3
18.616,7094.5
18.642,7316.1
18.668,7359.0
18.694,7217.0
18.72,7263.8
18.746,7481.8
18.772,7446.7
18.798,7392.2
18.824,7541.7
18.85,7851.8
18.876,7994.2
18.902,8195.5
18.928,8254.6
18.954,8034.0
18.98,7802.2
19.006,7756.0
19.032,7402.4
19.058,7288.3
19.084,7230.6
19.11,7159.4
19.136,7100.0
19.162,7127.7
19.188,7258.3
19.214,7181.5
19.24,7331.6
19.266,7330.4
19.292,7240.7
19.318,7262.9
19.344,7408.5
19.37,7233.5
19.396,7377.0
19.422,7550.8
19.448,7412.4
19.474,7243.0
19.5,7411.2
19.526,7294.0
19.552,7412.6
19.578,7494.0
19.604,7309.6
19.63,7114.6
19.656,7306.5
19.682,7289.4
19.708,7139.6
19.734,7214.8
19.76,7158.2
19.786,7264.5
19.812,7488.4
19.838,7434.0
19.864,7468.9
19.89,7617.8
19.916,7456.9
19.942,7456.6
19.968,7425.1
19.994,7371.8
20.02,7532.1
20.046,7509.4
20.072,7417.0
20.098,7411.9
20.124,7444.3
20.15,7381.8
20.176,7336.0
20.202,7351.0
20.228,7378.6
20.254,7483.6
20.28,7482.8
20.306,7411.9
20.332,7309.0
20.358,7332.6
20.384,7432.1
20.41,7601.6
20.436,7747.5
20.462,7739.1
20.488,7817.2
20.514,7948.1
20.54,7966.7
20.566,7894.5
20.592,7812.8
20.618,7784.8
20.644,7683.2
20.67,7507.0
20.696,7464.5
20.722,7417.5
20.748,7396.1
20.774,7395.5
20.8,7347.0
20.826,7336.9
20.852,7427.1
20.878,7354.1
20.904,7551.4
20.93,7614.4
20.956,7923.4
20.982,7971.2
21.008,8197.1
21.034,8375.2
21.06,8397.2
21.086,8340.9
21.112,7982.7
21.138,7730.3
21.164,7548.6
21.19,7556.4
21.216,7452.7
21.242,7228.9
21.268,7253.9
21.294,7143.8
21.32,7211.8
21.346,7273.0
21.372,7369.8
21.398,7254.6
21.424,7351.0
21.45,7366.3
21.476,7289.0
21.502,7457.1
21.528,7546.2
21.554,7675.1
21.58,7556.1
21.606,7548.6
21.632,7395.8
21.658,7441.6
21.684,7143.1
21.71,7111.0
21.736,7227.0
21.762,7094.4
21.788,7190.8
21.814,7116.7
21.84,7140.2
21.866,7159.2
21.892,7162.8
21.918,7124.6
21.944,7155.4
21.97,7261.7
21.996,7281.0
22.022,7206.6
22.048,7094.1
22.074,7193.4
22.1,7116.1
22.126,7058.2
22.152,7191.8
22.178,7106.3
22.204,7114.8
22.23,7019.5
22.256,7056.0
22.282,7050.8
22.308,7147.8
22.334,7012.2
22.36,7100.6
22.386,7205.5
22.412,7357.9
22.438,7453.0
22.464,7692.0
22.49,7654.6
22.516,7628.6
22.542,7593.6
22.568,7497.8
22.594,7345.4
22.62,7324.2
22.646,7213.6
22.672,7172.7
22.698,7228.2
22.724,7088.8
22.75,7029.0
22.776,7033.9
22.802,6985.2
22.828,7023.2
22.854,7077.4
22.88,7088.4
22.906,7124.6
22.932,7110.2
22.958,7017.0
22.984,7096.6
23.01,7181.3
23.036,7173.4
23.062,7086.3
23.088,6978.5
23.114,6999.1
23.14,6904.7
23.166,6877.7
23.192,7050.7
23.218,7153.4
23.244,7128.9
23.27,7045.8
23.296,7171.4
23.322,7394.4
23.348,7477.0
23.374,7476.5
23.4,7667.5
23.426,7898.1
23.452,7941.8
23.478,7702.0
23.504,7570.0
23.53,7515.8
23.556,7316.2
23.582,7188.2
23.608,7114.7
23.634,7060.8
23.66,6954.9
23.686,6996.2
23.712,6900.6
23.738,6932.5
23.764,6925.9
23.79,6746.7
23.816,6843.8
23.842,6845.1
23.868,7012.7
23.894,6875.5
23.92,6815.6
23.946,6912.8
23.972,6777.4
23.998,6846.8
24.024,6817.7
24.05,6808.1
24.076,6918.2
24.102,6793.4
24.128,6908.3
24.154,6903.9
24.18,6920.1
24.206,6866.3
24.232,6781.8
24.258,6747.8
24.284,6830.4
24.31,6894.0
24.336,6814.9
24.362,6739.6
24.388,6667.4
24.414,6981.3
24.44,6687.6
24.466,6818.0
24.492,6963.4
24.518,6796.0
24.544,6753.3
24.57,6842.6
24.596,6826.2
24.622,6795.9
24.648,6744.6
24.674,6862.1
24.7,6882.4
24.726,6910.7
24.752,7028.9
24.778,7116.5
24.804,7143.2
24.83,6907.2
24.856,6807.2
24.882,6885.5
24.908,6892.7
24.934,6768.6
24.96,6796.6
24.986,6661.4
25.012,6701.3
25.038,6695.4
25.064,6841.7
25.09,6857.3
25.116,6880.7
25.142,6880.4
25.168,6772.9
25.194,6940.8
25.22,6956.4
25.246,6926.0
25.272,6743.9
25.298,6735.1
25.324,6857.6
25.35,6732.3
25.376,6758.5
25.402,6758.8
25.428,6610.3
25.454,6544.6
25.48,6559.5
25.506,6564.9
25.532,6731.9
25.558,6779.2
25.584,6760.3
25.61,6820.8
25.636,6801.3
25.662,6756.8
25.688,6743.0
25.714,6730.3
25.74,6706.9
25.766,6683.3
25.792,6588.2
25.818,6563.6
25.844,6679.0
25.87,6713.4
25.896,6680.6
25.922,6718.7
25.948,6786.8
25.974,6770.1
26,6765.7
26.026,6623.2
26.052,6640.2
26.078,6690.6
26.104,6722.8
26.13,6737.6
26.156,6655.4
26.182,6636.3
26.208,6742.4
26.234,6765.6
26.26,6715.1
26.286,6818.0
26.312,6866.5
26.338,6748.1
26.364,6805.7
26.39,6870.6
26.416,7019.7
26.442,6813.1
26.468,6807.5
26.494,6762.6
26.52,6785.0
26.546,6733.7
26.572,6787.9
26.598,6772.1
26.624,6736.2
26.65,6704.0
26.676,6847.7
26.702,6859.7
26.728,6656.7
26.754,6908.5
26.78,6817.6
26.806,6849.2
26.832,6875.9
26.858,6853.7
26.884,7020.3
26.91,6856.8
26.936,7140.1
26.962,6841.9
26.988,6836.1
27.014,6859.8
27.04,6813.8
27.066,6654.4
27.092,6903.3
27.118,6750.0
27.144,6854.3
27.17,6704.2
27.196,6787.2
27.222,6989.6
27.248,6923.1
27.274,6988.2
27.3,6847.6
27.326,6696.0
27.352,6876.6
27.378,6824.3
27.404,6802.4
27.43,6643.3
27.456,6653.2
27.482,6669.3
27.508,6631.6
27.534,6602.9
27.56,6647.4
27.586,6554.1
27.612,6682.8
27.638,6755.4
27.664,6701.9
27.69,6714.1
27.716,6636.1
27.742,6618.4
27.768,6689.2
27.794,6646.5
27.82,6759.2
27.846,6756.8
27.872,6752.6
27.898,6630.0
27.924,6601.9
27.95,6835.2
27.976,6906.2
28.002,7098.1
28.028,7190.6
28.054,7082.3
28.08,6934.6
28.106,6922.2
28.132,6912.2
28.158,6791.7
28.184,6730.9
28.21,6650.2
28.236,6625.4
28.262,6548.1
28.288,6423.3
28.314,6397.1
28.34,6467.2
28.366,6580.4
28.392,6588.3
28.418,6600.9
28.444,6662.4
28.47,6650.6
28.496,6549.1
28.522,6443.8
28.548,6462.9
28.574,6497.6
28.6,6426.6
28.626,6478.0
28.652,6479.1
28.678,6500.7
28.704,6490.4
28.73,6428.0
28.756,6436.9
28.782,6424.7
28.808,6549.6
28.834,6504.7
28.86,6412.3
28.886,6372.7
28.912,6404.5
28.938,6340.3
28.964,6393.7
28.99,6436.5
29.016,6499.8
29.042,6456.2
29.068,6395.2
29.094,6401.5
29.12,6497.4
29.146,6504.6
29.172,6605.9
29.198,6635.7
29.224,6394.3
29.25,6466.5
29.276,6428.8
29.302,6348.4
29.328,6549.4
29.354,6466.7
29.38,6286.2
29.406,6398.4
29.432,6392.5
29.458,6419.1
29.484,6520.8
29.51,6651.4
29.536,6688.3
29.562,6791.5
29.588,6672.0
29.614,6581.9
29.64,6496.8
29.666,6458.7
29.692,6387.1
29.718,6350.4
29.744,6397.5
29.77,6269.2
29.796,6409.1
29.822,6127.9
29.848,6120.3
29.874,6278.0
29.9,6246.9
29.926,6191.6
29.952,6101.3
29.978,6137.3
30.004,6246.4
30.03,6215.2
30.056,6206.8
30.082,6230.8
30.108,6147.5
30.134,5993.0
30.16,6048.0
30.186,6068.7
30.212,6167.7
30.238,6142.1
30.264,6117.5
30.29,6074.1
30.316,6043.1
30.342,6072.4
30.368,6046.1
30.394,6113.7
30.42,6135.1
30.446,6135.1
30.472,5953.5
30.498,5998.0
30.524,6069.3
30.55,6128.3
30.576,6184.7
30.602,6066.2
30.628,6090.3
30.654,6113.7
30.68,6065.2
30.706,5912.6
30.732,5956.4
30.758,6117.8
30.784,6076.2
30.81,6000.4
30.836,5928.3
30.862,5895.1
30.888,5907.7
30.914,5896.0
30.94,5828.7
30.966,5869.6
30.992,5964.5
31.018,5893.3
31.044,5850.9
31.07,5898.0
31.096,5881.2
31.122,5879.5
31.148,5914.8
31.174,5822.6
31.2,5834.2
31.226,5852.8
31.252,5832.9
31.278,5916.0
31.304,5948.8
31.33,5934.0
31.356,5856.1
31.382,5819.0
31.408,5814.7
31.434,5723.0
31.46,5712.8
31.486,5731.7
31.512,5647.9
31.538,5619.5
31.564,5805.1
31.59,5670.7
31.616,5671.3
31.642,5680.5
31.668,5722.4
31.694,5590.6
31.72,5653.1
31.746,5617.7
31.772,5638.9
31.798,5722.2
31.824,5725.4
31.85,5731.2
31.876,5697.5
31.902,5727.7
31.928,5693.5
31.954,5674.1
31.98,5768.0
32.006,5566.5
32.032,5667.9
32.058,5579.9
32.084,5680.8
32.11,5568.1
32.136,5650.4
32.162,5683.6
32.188,5635.9
32.214,5631.4
32.24,5443.3
32.266,5572.5
32.292,5514.3
32.318,5537.2
32.344,5471.8
32.37,5589.5
32.396,5457.0
32.422,5446.1
32.448,5549.9
32.474,5610.8
32.5,5593.5
32.526,5513.6
32.552,5479.4
32.578,5594.3
32.604,5620.6
32.63,5647.5
32.656,5604.1
32.682,5609.9
32.708,5604.8
32.734,5632.2
32.76,5628.6
32.786,5551.7
32.812,5486.0
32.838,5503.8
32.864,5382.2
32.89,5386.0
32.916,5512.8
32.942,5363.5
32.968,5380.5
32.994,5408.3
33.02,5446.0
33.046,5538.3
33.072,5574.7
33.098,5476.7
33.124,5339.4
33.15,5247.1
33.176,5307.3
33.202,5378.4
33.228,5354.1
33.254,5173.2
33.28,5138.0
33.306,5189.9
33.332,5281.5
33.358,5256.1
33.384,5217.4
33.41,5319.7
33.436,5334.0
33.462,5267.6
33.488,5169.7
33.514,5138.0
33.54,5216.7
33.566,5250.6
33.592,5207.8
33.618,5197.8
33.644,5271.2
33.67,5269.6
33.696,5227.3
33.722,5251.2
33.748,5250.2
33.774,5235.5
33.8,5219.6
33.826,5181.8
33.852,5113.3
33.878,5115.3
33.904,5186.4
33.93,5193.9
33.956,5172.4
33.982,5259.3
34.008,5276.7
34.034,5280.8
34.06,5179.5
34.086,5174.3
34.112,5189.9
34.138,5065.7
34.164,5090.2
34.19,5031.1
34.216,5074.2
34.242,4988.4
34.268,4844.5
34.294,4987.7
34.32,5008.7
34.346,4928.9
34.372,5039.4
34.398,4931.9
34.424,5020.5
34.45,4918.4
34.476,4914.8
34.502,4995.1
34.528,4910.2
34.554,4887.1
34.58,4857.6
34.606,4872.3
34.632,4957.9
34.658,4939.2
34.684,4979.8
34.71,4990.9
34.736,4755.5
34.762,4811.1
34.788,4893.9
34.814,4890.1
34.84,4896.4
34.866,4807.3
34.892,5004.3
34.918,4965.0
34.944,4915.7
34.97,4914.0
34.996,4988.8
35.022,4931.2
35.048,4933.5
35.074,4840.5
35.1,4813.9
35.126,4860.4
35.152,4864.2
35.178,4941.2
35.204,4901.7
35.23,4906.9
35.256,4845.4
35.282,4841.5
35.308,4802.4
35.334,4839.8
35.36,4777.3
35.386,4766.4
35.412,4789.3
35.438,4834.7
35.464,4859.8
35.49,4753.3
35.516,4806.3
35.542,4786.5
35.568,4828.7
35.594,4838.8
35.62,4795.0
35.646,4840.5
35.672,4871.8
35.698,4859.7
35.724,4792.8
35.75,4728.7
35.776,4667.5
35.802,4648.5
35.828,4613.9
35.854,4686.8
35.88,4782.2
35.906,4702.3
35.932,4750.3
35.958,4753.2
35.984,4655.5
36.01,4665.9
36.036,4636.4
36.062,4658.4
36.088,4725.8
36.114,4637.9
36.14,4620.9
36.166,4624.5
36.192,4602.7
36.218,4661.8
36.244,4643.3
36.27,4629.2
36.296,4670.5
36.322,4678.5
36.348,4688.2
36.374,4672.5
36.4,4610.2
36.426,4626.7
36.452,4666.6
36.478,4558.7
36.504,4489.2
36.53,4570.2
36.556,4580.0
36.582,4624.8
36.608,4528.5
36.634,4605.9
36.66,4657.6
36.686,4595.4
36.712,4447.8
36.738,4515.9
36.764,4521.3
36.79,4490.1
36.816,4523.1
36.842,4545.0
36.868,4546.5
36.894,4585.7
36.92,4429.8
36.946,4474.4
36.972,4443.2
36.998,4351.6
37.024,4349.8
37.05,4444.5
37.076,4486.1
37.102,4443.0
37.128,4436.3
37.154,4579.0
37.18,4512.1
37.206,4487.8
37.232,4469.7
37.258,4400.9
37.284,4429.8
37.31,4531.4
37.336,4577.1
37.362,4510.0
37.388,4527.5
37.414,4429.1
37.44,4517.0
37.466,4654.0
37.492,4414.4
37.518,4472.1
37.544,4510.0
37.57,4340.3
37.596,4392.2
37.622,4532.9
37.648,4484.9
37.674,4351.5
37.7,4479.1
37.726,4511.0
37.752,4373.4
37.778,4363.2
37.804,4456.8
37.83,4467.4
37.856,4343.0
37.882,4333.8
37.908,4427.9
37.934,4381.6
37.96,4288.9
37.986,4243.6
38.012,4239.4
38.038,4389.3
38.064,4371.8
38.09,4338.9
38.116,4280.3
38.142,4233.9
38.168,4238.0
38.194,4298.9
38.22,4322.9
38.246,4365.7
38.272,4335.6
38.298,4286.8
38.324,4332.9
38.35,4339.0
38.376,4406.2
38.402,4354.5
38.428,4278.5
38.454,4301.0
38.48,4235.4
38.506,4239.9
38.532,4296.5
38.558,4407.1
38.584,4439.0
38.61,4345.6
38.636,4284.4
38.662,4303.4
38.688,4355.6
38.714,4316.1
38.74,4278.7
38.766,4298.5
38.792,4258.2
38.818,4239.5
38.844,4293.6
38.87,4350.9
38.896,4332.6
38.922,4268.2
38.948,4216.8
38.974,4220.3
39,4267.0
39.026,4218.2
39.052,4156.9
39.078,4141.1
39.104,4233.6
39.13,4270.2
39.156,4276.2
39.182,4251.7
39.208,4188.9
39.234,4285.8
39.26,4185.2
39.286,4138.2
39.312,4153.6
39.338,4188.1
39.364,4184.0
39.39,4247.5
39.416,4186.7
39.442,4214.5
39.468,4226.2
39.494,4310.7
39.52,4361.6
39.546,4258.7
39.572,4220.3
39.598,4118.4
39.624,4190.0
39.65,4209.1
39.676,4256.7
39.702,4237.9
39.728,4177.8
39.754,4235.5
39.78,4312.3
39.806,4345.7
39.832,4202.3
39.858,4294.3
39.884,4199.5
39.91,4117.4
39.936,4286.5
39.962,4206.2