File: 2021/xrd/raw_data/csv/#8138_4_40_R12_1_8_M15_P0026_T200 _1.csv
[Measurement conditions]
Sample identification,
Comment - 1,"Metodo 1"
Comment - 2,"Configuration=Stage flat sample, Owner=User-1, Creation date=18/05/2016 11:51:59 a.m."
Comment - 3,"Goniometer=Theta/Theta; Minimum step size 2Theta:0.0001; Minimum step size Omega:0.0001"
Comment - 4,"Sample stage=Stage for flat samples/holders"
Comment - 5,"Diffractometer system=EMPYREAN"
Comment - 6,"Measurement program=C:\PANalytical\Data Collector\Programs\4_40_R12_1_8_M15_P0026_T200 .xrdmp, Identifier={16617745-81AC-40A4-8377-9136E38050CA}"
Anode material,Cu
K-Alpha1 wavelength,1.5406
K-Alpha2 wavelength,1.54443
Ratio K-Alpha2/K-Alpha1,0.500
Divergence slit,Fixed,0.76mm
Monochromator used,NO
Generator voltage, 40
Tube current, 45
File date and time,09/ago/2021 13:41
Unit cell,
h k l, 0 0 0
Scan axis,Gonio
Scan range,3.9968,40
Scan step size,0.0262606
No. of points, 1371
Scan type,CONTINUOUS
Time per step,197.115
[Scan points]
Angle,Intensity
4.03,30390.6
4.056,28508.2
4.082,27201.1
4.108,26845.7
4.134,26345.3
4.16,25938.0
4.186,25942.7
4.212,27031.8
4.238,27976.5
4.264,29440.9
4.29,31551.3
4.316,34772.3
4.342,38798.1
4.368,44380.3
4.394,51383.7
4.42,60965.3
4.446,74044.6
4.472,92008.9
4.498,116419.2
4.524,143756.0
4.55,165661.3
4.576,160423.7
4.602,115659.4
4.628,68752.2
4.654,45951.8
4.68,36658.1
4.706,31773.5
4.732,28539.8
4.758,26167.4
4.784,24470.0
4.81,23360.4
4.836,22290.4
4.862,21454.8
4.888,20919.0
4.914,20516.6
4.94,20115.9
4.966,19581.0
4.992,19254.5
5.018,19082.7
5.044,18812.3
5.07,18527.7
5.096,18158.5
5.122,17856.5
5.148,17867.2
5.174,17770.7
5.2,17442.9
5.226,17416.3
5.252,17525.8
5.278,17270.7
5.304,17141.8
5.33,17151.4
5.356,17021.7
5.382,16998.8
5.408,16837.6
5.434,16652.4
5.46,16477.4
5.486,16401.0
5.512,16208.8
5.538,16269.7
5.564,16567.5
5.59,16233.7
5.616,16143.4
5.642,15892.3
5.668,15708.1
5.694,16022.6
5.72,15901.5
5.746,15997.7
5.772,15782.6
5.798,15686.3
5.824,15567.4
5.85,15475.2
5.876,15726.5
5.902,15654.5
5.928,15637.1
5.954,15453.6
5.98,15661.3
6.006,15432.5
6.032,15681.0
6.058,15583.0
6.084,15544.7
6.11,15962.3
6.136,16309.3
6.162,16458.0
6.188,17277.8
6.214,17764.6
6.24,18804.4
6.266,20191.8
6.292,22322.0
6.318,25115.5
6.344,29270.1
6.37,35208.0
6.396,42946.1
6.422,51179.9
6.448,57337.9
6.474,54333.2
6.5,39800.9
6.526,27815.5
6.552,22744.3
6.578,20599.8
6.604,19275.2
6.63,18399.9
6.656,17851.1
6.682,17347.9
6.708,16883.0
6.734,16582.2
6.76,16223.1
6.786,16098.2
6.812,15834.5
6.838,15776.3
6.864,15861.8
6.89,15754.4
6.916,15636.3
6.942,15448.7
6.968,15436.9
6.994,15228.6
7.02,15117.7
7.046,15224.5
7.072,15123.9
7.098,14990.5
7.124,14953.2
7.15,14847.4
7.176,14658.1
7.202,14746.5
7.228,14819.7
7.254,14620.7
7.28,14377.4
7.306,14404.8
7.332,14378.2
7.358,14312.0
7.384,14405.9
7.41,14286.1
7.436,14146.7
7.462,14303.9
7.488,14446.8
7.514,14406.6
7.54,14460.2
7.566,14632.0
7.592,14869.3
7.618,15098.7
7.644,15487.5
7.67,15893.3
7.696,16649.7
7.722,17860.6
7.748,19495.7
7.774,22139.2
7.8,26112.1
7.826,31782.2
7.852,38928.5
7.878,46288.6
7.904,50595.0
7.93,47144.8
7.956,34643.1
7.982,23768.4
8.008,19131.2
8.034,17137.1
8.06,16144.2
8.086,15272.9
8.112,14785.9
8.138,14245.7
8.164,14153.6
8.19,13819.1
8.216,13620.1
8.242,13258.4
8.268,13186.0
8.294,13269.2
8.32,12970.0
8.346,12860.7
8.372,12885.5
8.398,12615.6
8.424,12680.1
8.45,12532.6
8.476,12625.1
8.502,12481.4
8.528,12381.6
8.554,12544.4
8.58,12301.0
8.606,12301.7
8.632,12288.2
8.658,12314.0
8.684,11954.3
8.71,12153.5
8.736,12118.3
8.762,12210.9
8.788,12139.1
8.814,12209.1
8.84,12455.4
8.866,12431.7
8.892,12747.0
8.918,12999.2
8.944,13384.0
8.97,13982.8
8.996,15274.9
9.022,17081.8
9.048,19879.6
9.074,23464.7
9.1,27329.5
9.126,30233.3
9.152,29523.6
9.178,23789.1
9.204,17729.7
9.23,14759.8
9.256,13531.8
9.282,12862.4
9.308,12460.7
9.334,12105.3
9.36,11724.8
9.386,11773.9
9.412,11785.0
9.438,11587.8
9.464,11532.0
9.49,11389.2
9.516,11257.0
9.542,11388.9
9.568,11245.5
9.594,11099.6
9.62,10988.8
9.646,10869.3
9.672,11134.7
9.698,11100.1
9.724,11057.8
9.75,11040.0
9.776,10976.4
9.802,10724.6
9.828,10591.1
9.854,10778.3
9.88,10825.5
9.906,10686.6
9.932,10631.9
9.958,10642.0
9.984,10643.3
10.01,10695.4
10.036,10611.1
10.062,10635.7
10.088,10777.8
10.114,10827.8
10.14,11133.3
10.166,11543.4
10.192,11857.6
10.218,11909.4
10.244,11714.5
10.27,11209.1
10.296,10637.2
10.322,10187.4
10.348,10129.8
10.374,10200.3
10.4,10083.4
10.426,9836.5
10.452,9872.6
10.478,9855.5
10.504,9893.4
10.53,9772.8
10.556,9621.7
10.582,9702.7
10.608,9694.2
10.634,9648.8
10.66,9706.8
10.686,9665.9
10.712,9533.4
10.738,9576.2
10.764,9626.3
10.79,9532.5
10.816,9553.8
10.842,9494.4
10.868,9594.1
10.894,9647.3
10.92,9615.2
10.946,9699.6
10.972,9737.8
10.998,10066.9
11.024,10262.9
11.05,10980.8
11.076,11754.7
11.102,13109.5
11.128,15111.4
11.154,17556.7
11.18,19810.1
11.206,20789.4
11.232,17747.1
11.258,13870.1
11.284,11352.3
11.31,10559.1
11.336,10080.5
11.362,9589.8
11.388,9536.7
11.414,9273.8
11.44,9432.2
11.466,9353.2
11.492,9011.5
11.518,9072.6
11.544,8874.0
11.57,9069.9
11.596,8917.4
11.622,8977.0
11.648,9104.8
11.674,8850.4
11.7,8847.9
11.726,8833.8
11.752,8922.2
11.778,8913.9
11.804,8710.0
11.83,8626.9
11.856,8758.0
11.882,8712.0
11.908,8767.8
11.934,8559.2
11.96,8623.9
11.986,8659.0
12.012,8446.9
12.038,8480.0
12.064,8478.1
12.09,8375.1
12.116,8351.6
12.142,8448.9
12.168,8505.2
12.194,8464.9
12.22,8549.9
12.246,8493.8
12.272,8427.1
12.298,8383.3
12.324,8328.2
12.35,8358.1
12.376,8327.9
12.402,8317.3
12.428,8351.3
12.454,8292.7
12.48,8206.6
12.506,8246.8
12.532,8300.2
12.558,8366.4
12.584,8304.0
12.61,8157.3
12.636,8229.4
12.662,8253.9
12.688,8136.4
12.714,8022.5
12.74,7998.1
12.766,8012.2
12.792,7905.3
12.818,7901.5
12.844,7920.2
12.87,7855.6
12.896,7889.1
12.922,8028.9
12.948,8069.4
12.974,7990.3
13,7892.9
13.026,7905.5
13.052,8023.4
13.078,7863.9
13.104,7798.7
13.13,7890.9
13.156,7724.6
13.182,7818.0
13.208,7756.9
13.234,7855.0
13.26,7769.9
13.286,7875.8
13.312,7838.1
13.338,7741.0
13.364,7825.8
13.39,7716.4
13.416,7856.4
13.442,8003.9
13.468,7994.6
13.494,8028.2
13.52,8214.1
13.546,8353.7
13.572,8618.2
13.598,9191.9
13.624,10240.8
13.65,11714.2
13.676,13862.1
13.702,15897.0
13.728,17010.8
13.754,16074.4
13.78,13060.3
13.806,10616.1
13.832,9249.2
13.858,8752.8
13.884,8162.5
13.91,8287.2
13.936,8035.1
13.962,7893.7
13.988,7922.8
14.014,7536.6
14.04,7831.5
14.066,7758.4
14.092,7667.0
14.118,7697.5
14.144,7653.1
14.17,7606.9
14.196,7543.6
14.222,7534.3
14.248,7517.6
14.274,7474.8
14.3,7604.0
14.326,7639.9
14.352,7572.7
14.378,7570.2
14.404,7455.4
14.43,7361.8
14.456,7519.4
14.482,7466.2
14.508,7443.1
14.534,7460.1
14.56,7454.6
14.586,7406.1
14.612,7456.8
14.638,7339.5
14.664,7332.4
14.69,7403.8
14.716,7381.4
14.742,7353.6
14.768,7344.7
14.794,7433.9
14.82,7358.5
14.846,7368.7
14.872,7431.8
14.898,7342.5
14.924,7310.3
14.95,7315.7
14.976,7215.0
15.002,7193.1
15.028,7282.4
15.054,7335.9
15.08,7250.5
15.106,7154.7
15.132,7174.4
15.158,7226.7
15.184,7232.8
15.21,7255.3
15.236,7200.3
15.262,7206.3
15.288,7202.3
15.314,7066.1
15.34,7053.1
15.366,7133.3
15.392,7125.4
15.418,7054.0
15.444,7158.7
15.47,7034.6
15.496,6990.2
15.522,7124.5
15.548,7058.0
15.574,7069.7
15.6,7124.8
15.626,7078.1
15.652,7020.4
15.678,7117.0
15.704,7129.1
15.73,7147.0
15.756,7140.8
15.782,7204.1
15.808,7347.0
15.834,7593.3
15.86,7694.6
15.886,7566.3
15.912,7492.5
15.938,7367.7
15.964,7111.5
15.99,7133.0
16.016,6995.9
16.042,7001.0
16.068,7111.6
16.094,7084.5
16.12,7223.0
16.146,7024.5
16.172,7070.1
16.198,6968.0
16.224,7143.1
16.25,7129.1
16.276,7003.4
16.302,7074.1
16.328,7033.7
16.354,6945.3
16.38,7054.6
16.406,7008.6
16.432,6982.0
16.458,7196.7
16.484,7089.9
16.51,7084.0
16.536,7100.9
16.562,7245.3
16.588,7015.7
16.614,7172.5
16.64,7045.7
16.666,7075.7
16.692,7268.1
16.718,7155.7
16.744,7039.2
16.77,7017.3
16.796,7045.4
16.822,7047.2
16.848,7189.2
16.874,7154.8
16.9,6990.0
16.926,6947.8
16.952,7050.8
16.978,7114.8
17.004,7124.8
17.03,6946.7
17.056,7037.0
17.082,7193.4
17.108,7210.0
17.134,7261.5
17.16,7353.6
17.186,7142.3
17.212,6975.9
17.238,7102.8
17.264,7251.5
17.29,7194.1
17.316,7098.8
17.342,7048.7
17.368,7045.8
17.394,6998.9
17.42,7067.2
17.446,6989.4
17.472,6943.1
17.498,7085.0
17.524,7056.9
17.55,7056.9
17.576,7127.4
17.602,7103.9
17.628,7076.9
17.654,7121.4
17.68,7145.1
17.706,7045.3
17.732,7071.8
17.758,7192.5
17.784,7118.5
17.81,6962.3
17.836,6997.1
17.862,7050.3
17.888,7012.6
17.914,7045.7
17.94,7048.0
17.966,7058.9
17.992,7084.4
18.018,7054.7
18.044,7063.9
18.07,7029.4
18.096,7116.1
18.122,7337.9
18.148,7226.2
18.174,7092.6
18.2,7241.8
18.226,7326.3
18.252,7361.9
18.278,7469.1
18.304,7609.2
18.33,7660.8
18.356,7714.7
18.382,7639.6
18.408,7493.9
18.434,7239.8
18.46,7186.0
18.486,7189.9
18.512,7230.2
18.538,7275.8
18.564,7204.2
18.59,7168.9
18.616,7262.6
18.642,7215.8
18.668,7072.0
18.694,7240.4
18.72,7266.5
18.746,7147.4
18.772,7421.8
18.798,7576.8
18.824,7634.2
18.85,8063.7
18.876,8438.2
18.902,8803.9
18.928,8760.6
18.954,8472.3
18.98,7956.8
19.006,7858.4
19.032,7547.4
19.058,7335.4
19.084,7287.0
19.11,7488.2
19.136,7295.1
19.162,7170.3
19.188,7420.7
19.214,7064.3
19.24,7205.6
19.266,7250.9
19.292,7257.7
19.318,7413.3
19.344,7326.6
19.37,7336.2
19.396,7310.1
19.422,7352.4
19.448,7402.0
19.474,7424.5
19.5,7360.7
19.526,7368.7
19.552,7301.4
19.578,7219.1
19.604,7238.7
19.63,7392.8
19.656,7423.0
19.682,7467.1
19.708,7261.1
19.734,7357.3
19.76,7504.5
19.786,7469.1
19.812,7392.1
19.838,7506.1
19.864,7366.7
19.89,7405.0
19.916,7605.1
19.942,7757.5
19.968,7939.9
19.994,7880.7
20.02,7809.1
20.046,7839.2
20.072,7737.9
20.098,7616.0
20.124,7551.0
20.15,7505.9
20.176,7570.1
20.202,7646.7
20.228,7662.4
20.254,7652.8
20.28,7644.3
20.306,7603.2
20.332,7644.8
20.358,7631.3
20.384,7596.4
20.41,7708.1
20.436,7862.0
20.462,8094.9
20.488,8499.2
20.514,8819.0
20.54,8901.0
20.566,8720.9
20.592,8239.7
20.618,7814.7
20.644,7638.8
20.67,7632.5
20.696,7567.0
20.722,7457.2
20.748,7540.4
20.774,7545.7
20.8,7548.4
20.826,7592.8
20.852,7574.2
20.878,7686.8
20.904,7747.5
20.93,7837.7
20.956,8278.3
20.982,8877.6
21.008,9621.8
21.034,10164.2
21.06,10206.2
21.086,9614.9
21.112,8984.1
21.138,8313.6
21.164,7978.9
21.19,7793.2
21.216,7797.5
21.242,7736.8
21.268,7441.5
21.294,7517.8
21.32,7665.6
21.346,7558.7
21.372,7432.9
21.398,7586.3
21.424,7382.7
21.45,7709.6
21.476,8010.3
21.502,8087.4
21.528,8235.3
21.554,8275.8
21.58,8320.5
21.606,7950.5
21.632,7717.1
21.658,7535.4
21.684,7517.1
21.71,7452.6
21.736,7598.9
21.762,7443.4
21.788,7384.7
21.814,7262.8
21.84,7379.0
21.866,7472.1
21.892,7330.1
21.918,7339.8
21.944,7341.0
21.97,7394.2
21.996,7369.9
22.022,7530.4
22.048,7390.0
22.074,7377.0
22.1,7398.0
22.126,7293.7
22.152,7360.8
22.178,7373.5
22.204,7392.9
22.23,7388.0
22.256,7513.8
22.282,7431.4
22.308,7508.7
22.334,7463.8
22.36,7516.8
22.386,7532.9
22.412,7748.3
22.438,7843.9
22.464,8073.7
22.49,8345.2
22.516,8611.3
22.542,8465.4
22.568,8224.9
22.594,8032.9
22.62,7739.9
22.646,7623.7
22.672,7576.9
22.698,7513.0
22.724,7487.2
22.75,7413.7
22.776,7368.8
22.802,7324.8
22.828,7311.4
22.854,7394.0
22.88,7455.7
22.906,7482.1
22.932,7538.9
22.958,7553.5
22.984,7590.1
23.01,7558.9
23.036,7505.9
23.062,7526.0
23.088,7592.8
23.114,7451.6
23.14,7284.0
23.166,7393.2
23.192,7385.5
23.218,7355.7
23.244,7458.9
23.27,7472.2
23.296,7417.6
23.322,7512.2
23.348,7770.2
23.374,8091.8
23.4,8413.2
23.426,8802.8
23.452,8959.8
23.478,8748.8
23.504,8340.6
23.53,7986.1
23.556,7629.0
23.582,7457.2
23.608,7319.4
23.634,7215.4
23.66,7211.2
23.686,7073.4
23.712,7085.2
23.738,7194.8
23.764,7336.8
23.79,7234.3
23.816,7119.1
23.842,7106.9
23.868,7209.4
23.894,7144.2
23.92,7258.4
23.946,7186.3
23.972,7207.4
23.998,7243.3
24.024,7108.9
24.05,6862.7
24.076,7002.5
24.102,7006.0
24.128,7012.2
24.154,7065.8
24.18,6997.5
24.206,6989.7
24.232,7138.9
24.258,7052.9
24.284,7113.9
24.31,7082.4
24.336,7059.7
24.362,7236.6
24.388,6960.4
24.414,6973.8
24.44,7001.3
24.466,7265.5
24.492,6999.8
24.518,6909.5
24.544,6965.8
24.57,7075.5
24.596,6956.7
24.622,6863.5
24.648,7034.2
24.674,7172.8
24.7,7184.5
24.726,7223.8
24.752,7537.4
24.778,7390.1
24.804,7526.3
24.83,7301.3
24.856,7144.9
24.882,7114.7
24.908,6999.9
24.934,7141.7
24.96,6982.9
24.986,6891.8
25.012,6963.8
25.038,6984.8
25.064,7054.5
25.09,7016.7
25.116,6991.6
25.142,6936.5
25.168,7074.4
25.194,7207.3
25.22,7395.9
25.246,7335.1
25.272,7194.0
25.298,7008.9
25.324,7051.5
25.35,7055.7
25.376,6918.7
25.402,6921.2
25.428,6904.6
25.454,6818.9
25.48,6897.6
25.506,6898.3
25.532,6876.7
25.558,6815.3
25.584,6895.2
25.61,7060.2
25.636,7030.9
25.662,6961.2
25.688,6930.5
25.714,6881.3
25.74,6861.8
25.766,6876.2
25.792,6881.6
25.818,6832.8
25.844,6890.8
25.87,6992.0
25.896,6871.1
25.922,6835.6
25.948,6886.8
25.974,6941.1
26,6916.0
26.026,6936.4
26.052,6925.3
26.078,6790.3
26.104,6857.9
26.13,6886.3
26.156,6973.3
26.182,6959.9
26.208,6900.6
26.234,6833.8
26.26,6830.7
26.286,6904.1
26.312,6943.6
26.338,6984.6
26.364,6936.1
26.39,7046.8
26.416,6970.6
26.442,7096.7
26.468,7135.6
26.494,6881.6
26.52,7006.4
26.546,7214.3
26.572,7081.2
26.598,6893.3
26.624,6934.0
26.65,6896.7
26.676,6886.9
26.702,6868.6
26.728,6810.8
26.754,7033.1
26.78,7087.7
26.806,7251.1
26.832,7389.9
26.858,7526.8
26.884,7589.6
26.91,7465.5
26.936,7413.8
26.962,7104.5
26.988,7145.5
27.014,6976.2
27.04,6849.2
27.066,6815.9
27.092,6796.7
27.118,6754.1
27.144,6798.2
27.17,6835.5
27.196,7043.9
27.222,7103.9
27.248,7353.8
27.274,7361.2
27.3,7653.3
27.326,7324.1
27.352,7118.9
27.378,6913.9
27.404,6879.6
27.43,6768.1
27.456,6695.7
27.482,6705.4
27.508,6693.1
27.534,6696.9
27.56,6746.9
27.586,6691.1
27.612,6878.2
27.638,6911.8
27.664,6817.1
27.69,6729.9
27.716,6727.9
27.742,6679.2
27.768,6677.5
27.794,6583.1
27.82,6469.5
27.846,6630.5
27.872,6661.8
27.898,6619.9
27.924,6778.6
27.95,6847.4
27.976,6811.2
28.002,7085.9
28.028,7429.0
28.054,7495.7
28.08,7469.6
28.106,7343.8
28.132,7138.9
28.158,6890.0
28.184,6721.2
28.21,6662.7
28.236,6622.1
28.262,6491.3
28.288,6424.5
28.314,6521.6
28.34,6497.7
28.366,6490.2
28.392,6588.2
28.418,6617.0
28.444,6746.9
28.47,6726.6
28.496,6573.1
28.522,6595.2
28.548,6534.8
28.574,6505.8
28.6,6381.7
28.626,6291.6
28.652,6298.4
28.678,6251.1
28.704,6277.7
28.73,6218.2
28.756,6241.7
28.782,6278.9
28.808,6354.8
28.834,6309.0
28.86,6236.8
28.886,6252.4
28.912,6233.3
28.938,6226.4
28.964,6248.9
28.99,6210.6
29.016,6373.6
29.042,6259.2
29.068,6249.4
29.094,6235.6
29.12,6263.9
29.146,6404.0
29.172,6476.4
29.198,6533.3
29.224,6378.1
29.25,6341.1
29.276,6257.2
29.302,6315.0
29.328,6330.1
29.354,6275.0
29.38,6269.1
29.406,6127.8
29.432,6240.7
29.458,6264.1
29.484,6502.1
29.51,6848.9
29.536,6995.3
29.562,7226.5
29.588,7153.2
29.614,7173.8
29.64,6848.0
29.666,6769.5
29.692,6482.5
29.718,6423.1
29.744,6320.2
29.77,6204.9
29.796,6185.0
29.822,6294.6
29.848,6129.9
29.874,6008.4
29.9,6107.6
29.926,5950.8
29.952,6297.6
29.978,6169.3
30.004,5996.9
30.03,6068.0
30.056,5925.4
30.082,6041.8
30.108,5927.8
30.134,6010.3
30.16,6033.5
30.186,5915.4
30.212,5911.6
30.238,5955.1
30.264,6084.9
30.29,5982.9
30.316,5903.2
30.342,6038.0
30.368,5927.9
30.394,5958.0
30.42,5984.4
30.446,5788.1
30.472,5848.8
30.498,5976.7
30.524,5897.8
30.55,5942.7
30.576,5947.7
30.602,6150.0
30.628,6134.1
30.654,6173.1
30.68,6185.8
30.706,5982.9
30.732,5986.8
30.758,5976.5
30.784,5922.7
30.81,5915.8
30.836,5877.7
30.862,5805.5
30.888,5733.9
30.914,5738.2
30.94,5716.0
30.966,5733.9
30.992,5770.3
31.018,5758.6
31.044,5785.7
31.07,5829.7
31.096,5817.1
31.122,5750.1
31.148,5758.3
31.174,5672.1
31.2,5630.6
31.226,5670.1
31.252,5654.1
31.278,5648.1
31.304,5655.1
31.33,5716.1
31.356,5753.0
31.382,5667.3
31.408,5646.4
31.434,5658.3
31.46,5656.9
31.486,5652.6
31.512,5570.8
31.538,5435.6
31.564,5623.0
31.59,5508.7
31.616,5495.3
31.642,5414.8
31.668,5369.0
31.694,5449.9
31.72,5416.6
31.746,5335.8
31.772,5413.4
31.798,5310.7
31.824,5320.7
31.85,5424.9
31.876,5354.9
31.902,5354.3
31.928,5351.8
31.954,5326.4
31.98,5381.6
32.006,5399.7
32.032,5345.6
32.058,5481.0
32.084,5453.3
32.11,5449.4
32.136,5282.9
32.162,5384.6
32.188,5538.6
32.214,5358.3
32.24,5389.0
32.266,5213.0
32.292,5407.7
32.318,5326.7
32.344,5349.9
32.37,5308.3
32.396,5304.1
32.422,5399.7
32.448,5348.2
32.474,5266.6
32.5,5240.1
32.526,5294.9
32.552,5212.3
32.578,5267.8
32.604,5281.4
32.63,5246.3
32.656,5402.9
32.682,5524.5
32.708,5633.2
32.734,5704.0
32.76,5582.4
32.786,5550.6
32.812,5431.6
32.838,5447.3
32.864,5359.3
32.89,5159.6
32.916,5183.2
32.942,5271.6
32.968,5267.3
32.994,5190.2
33.02,5158.1
33.046,5222.3
33.072,5259.5
33.098,5336.8
33.124,5234.8
33.15,5152.3
33.176,5019.0
33.202,4996.6
33.228,4945.4
33.254,5065.2
33.28,5092.6
33.306,4995.0
33.332,5004.7
33.358,4997.4
33.384,4971.7
33.41,4989.0
33.436,4989.0
33.462,4969.0
33.488,4961.5
33.514,5006.1
33.54,5009.8
33.566,4963.1
33.592,4937.6
33.618,4948.8
33.644,4995.8
33.67,5013.0
33.696,4986.4
33.722,5018.4
33.748,5066.8
33.774,4985.4
33.8,4973.0
33.826,4992.6
33.852,4922.1
33.878,4866.2
33.904,4907.2
33.93,4998.1
33.956,4987.2
33.982,4966.3
34.008,4929.3
34.034,5011.7
34.06,5254.5
34.086,5237.6
34.112,5140.5
34.138,5199.1
34.164,5038.0
34.19,4954.2
34.216,4786.9
34.242,4734.9
34.268,4822.6
34.294,4755.3
34.32,4724.8
34.346,4713.4
34.372,4550.7
34.398,4686.6
34.424,4778.5
34.45,4693.5
34.476,4644.8
34.502,4711.9
34.528,4606.3
34.554,4508.1
34.58,4586.7
34.606,4535.8
34.632,4572.1
34.658,4679.5
34.684,4665.3
34.71,4540.8
34.736,4525.5
34.762,4620.0
34.788,4647.6
34.814,4629.9
34.84,4501.4
34.866,4560.8
34.892,4560.0
34.918,4695.7
34.944,4685.5
34.97,4725.2
34.996,4691.0
35.022,4823.0
35.048,4912.6
35.074,4729.2
35.1,4711.1
35.126,4548.6
35.152,4745.6
35.178,4581.7
35.204,4529.0
35.23,4546.4
35.256,4580.5
35.282,4643.0
35.308,4611.8
35.334,4669.2
35.36,4572.5
35.386,4552.4
35.412,4635.2
35.438,4564.4
35.464,4435.8
35.49,4519.5
35.516,4559.0
35.542,4573.3
35.568,4604.2
35.594,4688.0
35.62,4687.9
35.646,4709.5
35.672,4657.9
35.698,4626.6
35.724,4563.8
35.75,4583.1
35.776,4529.2
35.802,4484.7
35.828,4552.6
35.854,4536.0
35.88,4464.4
35.906,4441.6
35.932,4469.1
35.958,4491.5
35.984,4495.1
36.01,4449.0
36.036,4381.8
36.062,4331.6
36.088,4272.4
36.114,4318.1
36.14,4306.8
36.166,4295.5
36.192,4353.7
36.218,4323.7
36.244,4359.5
36.27,4375.9
36.296,4350.8
36.322,4364.8
36.348,4288.9
36.374,4341.4
36.4,4422.4
36.426,4287.3
36.452,4267.0
36.478,4253.9
36.504,4220.8
36.53,4251.6
36.556,4250.1
36.582,4234.7
36.608,4278.7
36.634,4232.5
36.66,4191.7
36.686,4230.9
36.712,4280.8
36.738,4235.3
36.764,4103.9
36.79,4137.3
36.816,4146.0
36.842,4099.5
36.868,4211.5
36.894,4215.3
36.92,4079.2
36.946,4246.8
36.972,4278.6
36.998,4189.6
37.024,4299.5
37.05,4338.1
37.076,4179.4
37.102,4045.9
37.128,4086.2
37.154,4044.2
37.18,4064.9
37.206,4092.9
37.232,4009.4
37.258,4067.9
37.284,4235.0
37.31,4144.5
37.336,4105.5
37.362,4063.2
37.388,4114.0
37.414,4196.5
37.44,4137.1
37.466,4217.2
37.492,4263.7
37.518,4322.1
37.544,4211.9
37.57,4200.3
37.596,4236.3
37.622,4108.6
37.648,4130.0
37.674,4144.9
37.7,4071.0
37.726,4153.6
37.752,4197.0
37.778,4114.3
37.804,4199.3
37.83,4141.2
37.856,4088.9
37.882,4158.1
37.908,4079.3
37.934,3999.9
37.96,3967.4
37.986,3951.7
38.012,3829.6
38.038,3807.6
38.064,3948.9
38.09,4028.1
38.116,3973.5
38.142,3963.9
38.168,3939.3
38.194,3923.9
38.22,3874.0
38.246,4054.9
38.272,4054.4
38.298,3940.4
38.324,3903.0
38.35,3964.7
38.376,4041.3
38.402,3974.4
38.428,3943.5
38.454,3932.7
38.48,3954.6
38.506,3940.2
38.532,3896.7
38.558,3919.4
38.584,3983.7
38.61,4097.7
38.636,4073.8
38.662,4018.9
38.688,4122.9
38.714,4138.7
38.74,4041.6
38.766,4008.6
38.792,3995.1
38.818,3963.3
38.844,3885.9
38.87,3834.7
38.896,3890.8
38.922,3899.7
38.948,3840.3
38.974,3826.1
39,3872.0
39.026,3914.2
39.052,3897.0
39.078,3867.9
39.104,3906.2
39.13,3940.3
39.156,3867.9
39.182,3863.2
39.208,3878.0
39.234,3921.6
39.26,3945.4
39.286,3928.3
39.312,3826.5
39.338,3870.0
39.364,3945.7
39.39,3945.8
39.416,3964.3
39.442,3882.2
39.468,3837.5
39.494,3979.6
39.52,4009.9
39.546,3977.5
39.572,3939.0
39.598,3988.3
39.624,3906.7
39.65,3844.3
39.676,3962.2
39.702,3942.0
39.728,3976.6
39.754,4015.6
39.78,4010.6
39.806,4033.0
39.832,3954.8
39.858,4051.2
39.884,4114.4
39.91,3809.9
39.936,4036.2
39.962,3943.2