File: 2021/xrd/raw_data/csv/#8201_Pyn-MOF_4_40_R12_1_8_M15_P0026_T200 _1.csv
[Measurement conditions]
Sample identification,
Comment - 1,"Metodo 1"
Comment - 2,"Configuration=Stage flat sample, Owner=User-1, Creation date=18/05/2016 11:51:59 a.m."
Comment - 3,"Goniometer=Theta/Theta; Minimum step size 2Theta:0.0001; Minimum step size Omega:0.0001"
Comment - 4,"Sample stage=Stage for flat samples/holders"
Comment - 5,"Diffractometer system=EMPYREAN"
Comment - 6,"Measurement program=C:\PANalytical\Data Collector\Programs\4_40_R12_1_8_M15_P0026_T200 .xrdmp, Identifier={16617745-81AC-40A4-8377-9136E38050CA}"
Anode material,Cu
K-Alpha1 wavelength,1.5406
K-Alpha2 wavelength,1.54443
Ratio K-Alpha2/K-Alpha1,0.500
Divergence slit,Fixed,0.76mm
Monochromator used,NO
Generator voltage, 40
Tube current, 45
File date and time,09/ago/2021 14:25
Unit cell,
h k l, 0 0 0
Scan axis,Gonio
Scan range,3.9968,40
Scan step size,0.0262606
No. of points, 1371
Scan type,CONTINUOUS
Time per step,197.115
[Scan points]
Angle,Intensity
4.03,29825.9
4.056,27427.4
4.082,25651.1
4.108,24229.0
4.134,23332.7
4.16,22797.0
4.186,21869.1
4.212,21218.5
4.238,20750.9
4.264,20097.2
4.29,19670.1
4.316,19248.1
4.342,18809.8
4.368,18549.0
4.394,18172.2
4.42,17842.0
4.446,17630.3
4.472,17431.9
4.498,17027.7
4.524,16768.5
4.55,16544.6
4.576,16412.2
4.602,16297.9
4.628,16133.3
4.654,15919.7
4.68,15797.4
4.706,15717.2
4.732,15496.4
4.758,15267.6
4.784,15229.7
4.81,15190.9
4.836,15041.7
4.862,14993.2
4.888,14844.8
4.914,14813.1
4.94,14897.0
4.966,14716.4
4.992,14625.2
5.018,14661.8
5.044,14479.1
5.07,14343.8
5.096,14174.8
5.122,14101.0
5.148,14146.6
5.174,13993.6
5.2,13944.7
5.226,14038.8
5.252,14132.0
5.278,14041.5
5.304,13781.6
5.33,13767.8
5.356,13712.9
5.382,13671.7
5.408,13716.5
5.434,13515.4
5.46,13536.7
5.486,13434.5
5.512,13277.0
5.538,13306.7
5.564,13465.1
5.59,13276.6
5.616,13197.4
5.642,13177.5
5.668,13290.9
5.694,13089.3
5.72,13067.5
5.746,13027.1
5.772,12915.2
5.798,12986.6
5.824,12870.0
5.85,12962.0
5.876,12654.7
5.902,12844.0
5.928,12632.4
5.954,12573.5
5.98,12655.4
6.006,12675.6
6.032,12639.9
6.058,12289.4
6.084,12456.6
6.11,12509.5
6.136,12237.2
6.162,12146.1
6.188,12146.7
6.214,12343.4
6.24,12118.6
6.266,11996.0
6.292,12116.6
6.318,11981.3
6.344,11957.7
6.37,11831.5
6.396,11949.1
6.422,11969.3
6.448,11965.6
6.474,11881.8
6.5,11652.2
6.526,11683.1
6.552,11938.3
6.578,11744.4
6.604,11593.5
6.63,11717.5
6.656,11455.4
6.682,11422.4
6.708,11450.4
6.734,11451.5
6.76,11503.7
6.786,11481.3
6.812,11667.0
6.838,11315.2
6.864,11379.1
6.89,11425.0
6.916,11397.6
6.942,11321.7
6.968,11180.6
6.994,10991.1
7.02,11013.3
7.046,11193.0
7.072,11178.1
7.098,11066.8
7.124,11016.4
7.15,11110.4
7.176,11089.9
7.202,10960.3
7.228,10943.1
7.254,11117.2
7.28,11089.7
7.306,10885.9
7.332,10887.0
7.358,10900.5
7.384,10852.7
7.41,10839.4
7.436,10854.7
7.462,10822.0
7.488,10746.4
7.514,10717.2
7.54,10721.1
7.566,10743.5
7.592,10709.2
7.618,10720.3
7.644,10713.8
7.67,10679.4
7.696,10654.0
7.722,10618.3
7.748,10570.0
7.774,10507.2
7.8,10503.7
7.826,10565.5
7.852,10486.1
7.878,10497.1
7.904,10406.7
7.93,10526.4
7.956,10639.2
7.982,10699.5
8.008,10638.8
8.034,10772.2
8.06,10992.2
8.086,11331.6
8.112,11474.3
8.138,11854.7
8.164,12495.7
8.19,13338.3
8.216,14147.1
8.242,14961.4
8.268,15856.8
8.294,15347.2
8.32,14514.4
8.346,13349.3
8.372,12418.7
8.398,11522.3
8.424,11237.5
8.45,10953.1
8.476,10982.7
8.502,10875.8
8.528,10787.8
8.554,11069.6
8.58,11210.8
8.606,11214.4
8.632,11788.3
8.658,12191.2
8.684,12714.7
8.71,13599.5
8.736,14416.9
8.762,16068.4
8.788,18075.8
8.814,20856.8
8.84,24961.0
8.866,29840.9
8.892,35501.5
8.918,40889.1
8.944,45678.9
8.97,47156.6
8.996,44172.2
9.022,38786.0
9.048,32200.0
9.074,26125.4
9.1,21294.8
9.126,18082.5
9.152,16149.5
9.178,14675.7
9.204,13879.6
9.23,13305.0
9.256,12910.8
9.282,12819.4
9.308,12777.7
9.334,13141.0
9.36,13259.9
9.386,13286.0
9.412,13707.9
9.438,13824.6
9.464,13719.5
9.49,13569.0
9.516,13125.0
9.542,12627.1
9.568,12017.0
9.594,11425.4
9.62,10972.6
9.646,10596.6
9.672,10338.0
9.698,10164.2
9.724,9914.3
9.75,9755.2
9.776,9757.6
9.802,9692.9
9.828,9652.8
9.854,9650.3
9.88,9723.0
9.906,9747.1
9.932,9730.8
9.958,9769.0
9.984,9845.8
10.01,10010.7
10.036,10292.6
10.062,10452.4
10.088,10867.5
10.114,11613.1
10.14,12023.1
10.166,12587.8
10.192,13088.9
10.218,13265.8
10.244,13201.6
10.27,12746.9
10.296,12201.9
10.322,11486.5
10.348,10772.7
10.374,10129.2
10.4,9674.7
10.426,9314.9
10.452,9165.3
10.478,8979.1
10.504,8921.9
10.53,8901.8
10.556,8724.0
10.582,8826.2
10.608,8693.1
10.634,8642.9
10.66,8556.3
10.686,8495.9
10.712,8626.7
10.738,8632.5
10.764,8697.6
10.79,8454.3
10.816,8521.5
10.842,8611.4
10.868,8633.1
10.894,8568.1
10.92,8677.4
10.946,8517.9
10.972,8410.8
10.998,8702.7
11.024,8528.1
11.05,8676.1
11.076,8736.3
11.102,8951.8
11.128,9183.8
11.154,9311.1
11.18,9943.7
11.206,10584.4
11.232,11597.4
11.258,12437.3
11.284,13157.0
11.31,13565.3
11.336,13359.2
11.362,12449.7
11.388,11429.2
11.414,10290.1
11.44,9613.7
11.466,9030.9
11.492,8743.3
11.518,8546.9
11.544,8550.5
11.57,8723.3
11.596,8788.8
11.622,8638.1
11.648,8587.4
11.674,8518.6
11.7,8616.7
11.726,8762.1
11.752,8733.2
11.778,8702.4
11.804,8903.0
11.83,9091.2
11.856,9067.3
11.882,9255.7
11.908,9663.6
11.934,10061.9
11.96,10849.0
11.986,11691.0
12.012,12956.0
12.038,14432.2
12.064,16331.4
12.09,17420.4
12.116,18153.8
12.142,18443.1
12.168,18487.4
12.194,18701.7
12.22,18890.8
12.246,19410.1
12.272,20551.5
12.298,22475.9
12.324,24319.9
12.35,25963.6
12.376,27500.5
12.402,29327.7
12.428,31720.9
12.454,35330.7
12.48,40841.2
12.506,48314.1
12.532,57955.0
12.558,68359.4
12.584,77293.6
12.61,82380.7
12.636,81648.6
12.662,74632.4
12.688,62427.5
12.714,48584.4
12.74,36697.3
12.766,28045.2
12.792,22167.6
12.818,18192.5
12.844,15527.4
12.87,13839.9
12.896,12633.5
12.922,11503.0
12.948,10745.0
12.974,10237.9
13,9881.9
13.026,9594.9
13.052,9444.4
13.078,9318.9
13.104,8964.5
13.13,8973.2
13.156,8944.0
13.182,8820.3
13.208,9071.0
13.234,9322.8
13.26,9660.3
13.286,10120.1
13.312,10598.6
13.338,10889.3
13.364,10800.7
13.39,10807.6
13.416,10517.2
13.442,9809.5
13.468,9334.2
13.494,8591.4
13.52,8197.4
13.546,7962.6
13.572,7996.0
13.598,7778.6
13.624,7690.9
13.65,7635.1
13.676,7610.6
13.702,7632.5
13.728,7417.7
13.754,7513.4
13.78,7444.2
13.806,7335.3
13.832,7259.6
13.858,7325.5
13.884,7361.6
13.91,7266.6
13.936,7371.3
13.962,7218.1
13.988,7209.2
14.014,7247.2
14.04,7365.1
14.066,7309.4
14.092,7282.8
14.118,7169.4
14.144,7036.9
14.17,7249.4
14.196,7252.1
14.222,7235.0
14.248,7198.4
14.274,7228.9
14.3,7225.7
14.326,7209.8
14.352,7239.2
14.378,7139.2
14.404,7242.2
14.43,7216.5
14.456,7227.1
14.482,7297.6
14.508,7540.3
14.534,7678.5
14.56,8037.3
14.586,8319.0
14.612,8776.1
14.638,9619.8
14.664,10452.1
14.69,11526.3
14.716,12434.7
14.742,13087.1
14.768,13121.7
14.794,12565.4
14.82,11691.5
14.846,10669.5
14.872,9619.3
14.898,8815.5
14.924,8243.6
14.95,7753.9
14.976,7421.1
15.002,7277.6
15.028,7203.0
15.054,7226.2
15.08,7096.0
15.106,7000.4
15.132,7010.9
15.158,6854.7
15.184,6650.7
15.21,6654.6
15.236,6770.3
15.262,6839.2
15.288,6881.5
15.314,6825.2
15.34,6872.3
15.366,7034.0
15.392,7024.2
15.418,7082.9
15.444,7277.9
15.47,7400.8
15.496,7658.2
15.522,8174.0
15.548,8730.7
15.574,9205.8
15.6,9637.1
15.626,9736.7
15.652,9728.1
15.678,9413.5
15.704,8804.8
15.73,8186.9
15.756,7715.9
15.782,7598.6
15.808,7205.7
15.834,7042.4
15.86,6881.6
15.886,6740.7
15.912,6772.4
15.938,6681.0
15.964,6715.8
15.99,6677.0
16.016,6611.6
16.042,6705.2
16.068,6621.3
16.094,6640.0
16.12,6581.1
16.146,6591.4
16.172,6531.5
16.198,6650.7
16.224,6655.9
16.25,6532.0
16.276,6446.7
16.302,6570.5
16.328,6536.0
16.354,6600.3
16.38,6568.6
16.406,6475.3
16.432,6621.3
16.458,6628.6
16.484,6613.2
16.51,6890.7
16.536,6728.4
16.562,6803.6
16.588,6805.0
16.614,6871.4
16.64,6779.8
16.666,6695.9
16.692,6728.3
16.718,6541.0
16.744,6389.1
16.77,6448.2
16.796,6567.6
16.822,6522.8
16.848,6528.1
16.874,6392.0
16.9,6533.7
16.926,6389.2
16.952,6494.4
16.978,6420.0
17.004,6632.2
17.03,6581.6
17.056,6615.5
17.082,6642.0
17.108,6748.6
17.134,6951.5
17.16,6873.9
17.186,7063.0
17.212,7098.2
17.238,7155.8
17.264,7107.6
17.29,6995.3
17.316,6765.3
17.342,6684.5
17.368,6627.0
17.394,6633.2
17.42,6618.9
17.446,6393.2
17.472,6359.8
17.498,6305.8
17.524,6246.8
17.55,6223.8
17.576,6303.2
17.602,6192.0
17.628,6132.5
17.654,6277.0
17.68,6261.6
17.706,6265.2
17.732,6303.9
17.758,6335.5
17.784,6381.5
17.81,6480.6
17.836,6616.2
17.862,6891.0
17.888,7207.6
17.914,7462.6
17.94,7835.2
17.966,8149.9
17.992,8301.2
18.018,8330.8
18.044,8270.0
18.07,7950.8
18.096,7444.8
18.122,7056.5
18.148,6895.2
18.174,6570.0
18.2,6373.6
18.226,6352.8
18.252,6206.6
18.278,6141.1
18.304,6192.2
18.33,6153.7
18.356,5987.2
18.382,6000.9
18.408,5906.1
18.434,6006.7
18.46,5992.8
18.486,5966.8
18.512,6087.9
18.538,6049.2
18.564,6056.1
18.59,6074.1
18.616,6048.1
18.642,5980.7
18.668,5885.0
18.694,5914.9
18.72,5967.8
18.746,6059.0
18.772,6007.6
18.798,6017.5
18.824,6072.7
18.85,6139.0
18.876,6033.3
18.902,6044.3
18.928,6053.9
18.954,6255.0
18.98,6292.8
19.006,6247.6
19.032,6371.3
19.058,6284.9
19.084,6446.9
19.11,6439.3
19.136,6152.2
19.162,6150.0
19.188,6010.9
19.214,5947.9
19.24,6099.6
19.266,5947.4
19.292,5908.0
19.318,5906.9
19.344,5893.2
19.37,5930.2
19.396,6026.7
19.422,5985.4
19.448,5861.9
19.474,5974.0
19.5,6067.0
19.526,5945.5
19.552,5901.8
19.578,5996.9
19.604,5998.1
19.63,5965.6
19.656,5975.8
19.682,5963.4
19.708,5948.8
19.734,5943.7
19.76,5863.8
19.786,5916.4
19.812,5967.2
19.838,6046.2
19.864,5882.2
19.89,5863.1
19.916,5882.2
19.942,5876.8
19.968,6008.7
19.994,6046.1
20.02,6016.8
20.046,6096.0
20.072,6075.6
20.098,6108.2
20.124,6206.9
20.15,6224.2
20.176,6291.3
20.202,6286.7
20.228,6320.8
20.254,6193.2
20.28,6158.6
20.306,6272.5
20.332,6272.1
20.358,6236.3
20.384,6201.9
20.41,6139.0
20.436,6111.1
20.462,6074.6
20.488,5978.7
20.514,5966.3
20.54,6022.5
20.566,5980.3
20.592,5956.8
20.618,6068.1
20.644,6151.9
20.67,6100.1
20.696,6103.4
20.722,6273.6
20.748,6436.8
20.774,6970.1
20.8,7377.3
20.826,7058.7
20.852,6797.8
20.878,6473.4
20.904,6283.0
20.93,6159.0
20.956,6226.3
20.982,6185.9
21.008,6137.1
21.034,6123.5
21.06,6054.8
21.086,6177.7
21.112,6225.9
21.138,6312.7
21.164,6445.6
21.19,6610.6
21.216,6632.5
21.242,6883.6
21.268,7344.6
21.294,7795.1
21.32,8164.3
21.346,8606.4
21.372,8874.4
21.398,8896.2
21.424,8748.4
21.45,8365.8
21.476,7905.3
21.502,7406.4
21.528,7187.6
21.554,7086.2
21.58,6812.4
21.606,6826.1
21.632,6729.0
21.658,6757.8
21.684,6993.6
21.71,7193.2
21.736,7148.8
21.762,7259.7
21.788,7428.8
21.814,7843.5
21.84,7888.8
21.866,8080.6
21.892,8255.8
21.918,7975.2
21.944,7787.1
21.97,7427.0
21.996,7268.0
22.022,6964.9
22.048,6691.3
22.074,6617.1
22.1,6272.4
22.126,6293.1
22.152,6274.5
22.178,6341.1
22.204,6280.4
22.23,6256.8
22.256,6359.3
22.282,6322.5
22.308,6258.9
22.334,6329.3
22.36,6208.4
22.386,6204.5
22.412,6244.7
22.438,6174.9
22.464,6190.8
22.49,6278.9
22.516,6331.1
22.542,6268.9
22.568,6299.4
22.594,6339.2
22.62,6479.6
22.646,6453.0
22.672,6600.6
22.698,6764.9
22.724,6763.3
22.75,6746.7
22.776,6802.7
22.802,6834.6
22.828,6703.7
22.854,6642.4
22.88,6708.6
22.906,6653.3
22.932,6512.5
22.958,6465.3
22.984,6499.0
23.01,6424.6
23.036,6351.8
23.062,6467.2
23.088,6562.6
23.114,6559.4
23.14,6606.7
23.166,6668.6
23.192,6714.0
23.218,6709.4
23.244,6590.0
23.27,6500.7
23.296,6500.6
23.322,6607.9
23.348,6614.9
23.374,6459.7
23.4,6590.8
23.426,6708.2
23.452,6752.2
23.478,6756.8
23.504,6904.2
23.53,6997.8
23.556,7085.5
23.582,7217.9
23.608,7118.0
23.634,7111.9
23.66,7186.4
23.686,7231.1
23.712,7263.6
23.738,7370.7
23.764,7534.4
23.79,7976.2
23.816,8434.6
23.842,8839.7
23.868,9119.6
23.894,9269.0
23.92,9374.3
23.946,9409.7
23.972,9441.3
23.998,9674.4
24.024,10160.1
24.05,10338.0
24.076,10421.2
24.102,10162.2
24.128,9875.7
24.154,9396.4
24.18,9073.1
24.206,8476.4
24.232,8070.8
24.258,7732.4
24.284,7957.1
24.31,8044.0
24.336,8046.0
24.362,8311.8
24.388,8268.2
24.414,8765.5
24.44,9136.8
24.466,9783.1
24.492,10329.6
24.518,10425.9
24.544,10968.9
24.57,11193.9
24.596,11622.9
24.622,11719.9
24.648,12065.5
24.674,12416.9
24.7,13095.6
24.726,13160.9
24.752,13312.8
24.778,13375.4
24.804,13099.3
24.83,12945.7
24.856,12707.0
24.882,12837.1
24.908,12911.9
24.934,13090.7
24.96,13353.0
24.986,13714.1
25.012,14409.1
25.038,15042.3
25.064,16338.7
25.09,18067.1
25.116,20084.8
25.142,22461.2
25.168,24664.8
25.194,26432.9
25.22,27473.5
25.246,27246.0
25.272,26493.6
25.298,25646.2
25.324,24941.2
25.35,24648.4
25.376,24437.3
25.402,23842.2
25.428,22862.6
25.454,21261.6
25.48,19344.9
25.506,17113.6
25.532,14866.3
25.558,13032.8
25.584,11529.4
25.61,10443.0
25.636,9695.6
25.662,9151.2
25.688,8793.3
25.714,8560.3
25.74,8463.9
25.766,8497.6
25.792,8687.2
25.818,8798.0
25.844,8780.5
25.87,8837.1
25.896,8781.2
25.922,8703.2
25.948,8636.8
25.974,8532.9
26,8471.1
26.026,8345.6
26.052,8201.9
26.078,8134.3
26.104,8003.2
26.13,7929.0
26.156,7945.1
26.182,7946.4
26.208,7956.9
26.234,8175.2
26.26,8359.9
26.286,8672.9
26.312,9157.2
26.338,9762.5
26.364,10519.6
26.39,11021.9
26.416,11732.8
26.442,12472.5
26.468,12567.9
26.494,12297.6
26.52,11888.3
26.546,11178.3
26.572,10694.9
26.598,9884.9
26.624,9409.1
26.65,8986.5
26.676,8867.5
26.702,8824.9
26.728,8714.7
26.754,8959.1
26.78,9117.5
26.806,8903.5
26.832,8957.7
26.858,9107.3
26.884,9175.6
26.91,8968.1
26.936,9082.9
26.962,8819.1
26.988,8826.0
27.014,8812.1
27.04,8838.5
27.066,8801.0
27.092,9078.4
27.118,9300.6
27.144,9282.7
27.17,9871.9
27.196,9975.0
27.222,10477.0
27.248,11052.6
27.274,11646.1
27.3,12508.1
27.326,13940.4
27.352,15584.3
27.378,18104.4
27.404,21344.9
27.43,25857.6
27.456,31433.2
27.482,38348.9
27.508,46293.3
27.534,54818.1
27.56,61878.8
27.586,66126.4
27.612,67617.0
27.638,66891.3
27.664,62904.5
27.69,56141.0
27.716,48390.7
27.742,40713.3
27.768,33721.5
27.794,27852.8
27.82,23434.0
27.846,20219.2
27.872,18203.9
27.898,16987.1
27.924,15761.3
27.95,14797.7
27.976,13666.0
28.002,12566.0
28.028,12047.1
28.054,11593.2
28.08,11097.6
28.106,10994.6
28.132,10911.7
28.158,10696.5
28.184,10435.7
28.21,10074.2
28.236,9620.5
28.262,9227.5
28.288,8984.7
28.314,8668.9
28.34,8345.2
28.366,8120.2
28.392,7915.8
28.418,7860.2
28.444,7893.3
28.47,7733.0
28.496,7546.4
28.522,7481.0
28.548,7295.0
28.574,7228.8
28.6,7251.5
28.626,7259.4
28.652,7425.9
28.678,7617.6
28.704,7776.9
28.73,8038.5
28.756,8270.5
28.782,8671.8
28.808,9264.9
28.834,10028.6
28.86,10862.8
28.886,11719.8
28.912,12210.4
28.938,12755.5
28.964,12614.0
28.99,12345.2
29.016,11786.6
29.042,10866.7
29.068,10084.2
29.094,9372.2
29.12,8825.0
29.146,8169.9
29.172,7691.0
29.198,7467.9
29.224,7090.8
29.25,7173.8
29.276,6831.2
29.302,6682.1
29.328,6604.5
29.354,6561.8
29.38,6496.6
29.406,6420.3
29.432,6610.7
29.458,6351.9
29.484,6495.9
29.51,6321.1
29.536,6696.3
29.562,6485.0
29.588,6531.1
29.614,6543.0
29.64,6562.8
29.666,6625.8
29.692,6451.3
29.718,6648.8
29.744,6658.9
29.77,6754.1
29.796,6675.3
29.822,6587.9
29.848,6428.8
29.874,6295.9
29.9,6277.7
29.926,6190.6
29.952,6080.5
29.978,6110.8
30.004,6076.3
30.03,6045.4
30.056,5922.9
30.082,5829.1
30.108,5900.1
30.134,6033.1
30.16,6015.0
30.186,6058.6
30.212,6048.5
30.238,6062.4
30.264,6096.8
30.29,5885.4
30.316,5911.6
30.342,5932.4
30.368,5896.1
30.394,5867.8
30.42,5883.2
30.446,5859.5
30.472,5843.3
30.498,5761.4
30.524,5755.3
30.55,5718.7
30.576,5597.4
30.602,5601.8
30.628,5472.1
30.654,5390.1
30.68,5474.1
30.706,5453.7
30.732,5383.8
30.758,5386.6
30.784,5388.3
30.81,5354.6
30.836,5258.6
30.862,5280.1
30.888,5285.9
30.914,5228.1
30.94,5339.9
30.966,5417.3
30.992,5425.2
31.018,5448.1
31.044,5443.3
31.07,5369.4
31.096,5305.1
31.122,5356.5
31.148,5355.4
31.174,5365.9
31.2,5362.8
31.226,5399.0
31.252,5411.7
31.278,5392.6
31.304,5483.2
31.33,5541.6
31.356,5597.3
31.382,5623.6
31.408,5699.7
31.434,5679.0
31.46,5760.8
31.486,5845.0
31.512,5817.0
31.538,5791.2
31.564,5778.3
31.59,5764.7
31.616,5700.9
31.642,5636.2
31.668,5629.6
31.694,5539.7
31.72,5288.9
31.746,5245.9
31.772,5200.4
31.798,5162.2
31.824,5036.8
31.85,5170.5
31.876,5102.9
31.902,5211.2
31.928,5022.6
31.954,5081.8
31.98,5041.0
32.006,5051.0
32.032,4972.4
32.058,5019.2
32.084,4951.1
32.11,4916.8
32.136,4851.5
32.162,4812.5
32.188,4763.3
32.214,4831.1
32.24,4728.1
32.266,4822.9
32.292,4648.8
32.318,4793.2
32.344,4638.8
32.37,4713.6
32.396,4634.4
32.422,4682.9
32.448,4702.6
32.474,4725.8
32.5,4604.8
32.526,4534.1
32.552,4673.0
32.578,4573.9
32.604,4595.5
32.63,4704.0
32.656,4738.8
32.682,4634.1
32.708,4632.5
32.734,4708.3
32.76,4647.4
32.786,4737.0
32.812,4727.0
32.838,4711.4
32.864,4792.1
32.89,4730.2
32.916,4707.7
32.942,4787.5
32.968,4791.5
32.994,4809.7
33.02,4735.5
33.046,4720.4
33.072,4748.4
33.098,4738.2
33.124,4681.4
33.15,4677.8
33.176,4623.6
33.202,4654.6
33.228,4638.1
33.254,4575.9
33.28,4524.9
33.306,4610.1
33.332,4661.9
33.358,4654.0
33.384,4651.6
33.41,4690.8
33.436,4666.2
33.462,4609.2
33.488,4686.5
33.514,4767.1
33.54,4785.1
33.566,4846.3
33.592,4924.5
33.618,4961.1
33.644,4940.3
33.67,4921.5
33.696,4945.6
33.722,4890.8
33.748,4831.3
33.774,4858.5
33.8,4765.3
33.826,4655.9
33.852,4695.0
33.878,4677.8
33.904,4648.9
33.93,4665.2
33.956,4615.9
33.982,4634.0
34.008,4663.4
34.034,4722.5
34.06,4771.2
34.086,4856.2
34.112,5049.4
34.138,5159.0
34.164,5273.1
34.19,5499.4
34.216,5778.6
34.242,6035.2
34.268,6372.4
34.294,6425.1
34.32,6603.8
34.346,6488.0
34.372,6107.5
34.398,5908.7
34.424,5603.9
34.45,5236.3
34.476,4961.6
34.502,4888.1
34.528,4768.2
34.554,4693.7
34.58,4445.9
34.606,4556.2
34.632,4407.5
34.658,4407.9
34.684,4350.4
34.71,4408.2
34.736,4332.6
34.762,4426.8
34.788,4371.8
34.814,4477.1
34.84,4544.0
34.866,4694.5
34.892,4698.9
34.918,4955.8
34.944,4937.8
34.97,5086.2
34.996,5087.3
35.022,5171.3
35.048,5063.0
35.074,4933.9
35.1,4690.8
35.126,4620.3
35.152,4670.9
35.178,4510.4
35.204,4470.5
35.23,4332.5
35.256,4238.0
35.282,4142.1
35.308,4161.6
35.334,4262.2
35.36,4092.3
35.386,4064.6
35.412,4019.4
35.438,4006.8
35.464,4019.3
35.49,3944.1
35.516,3912.3
35.542,3953.6
35.568,3974.8
35.594,3922.4
35.62,3918.0
35.646,3962.0
35.672,3903.6
35.698,3936.5
35.724,3973.4
35.75,3978.0
35.776,3903.7
35.802,3824.0
35.828,3822.1
35.854,3861.9
35.88,3883.3
35.906,3897.4
35.932,3849.0
35.958,3741.0
35.984,3767.9
36.01,3804.7
36.036,3782.5
36.062,3746.1
36.088,3735.4
36.114,3797.9
36.14,3788.4
36.166,3796.5
36.192,3769.2
36.218,3735.7
36.244,3785.2
36.27,3715.3
36.296,3678.3
36.322,3714.0
36.348,3698.9
36.374,3739.6
36.4,3792.2
36.426,3732.8
36.452,3771.0
36.478,3833.2
36.504,3723.6
36.53,3681.8
36.556,3798.8
36.582,3786.7
36.608,3755.6
36.634,3828.8
36.66,3712.3
36.686,3747.5
36.712,3727.7
36.738,3749.6
36.764,3620.9
36.79,3600.9
36.816,3649.1
36.842,3628.2
36.868,3524.4
36.894,3574.9
36.92,3543.8
36.946,3522.0
36.972,3526.6
36.998,3561.9
37.024,3732.5
37.05,3813.6
37.076,3647.4
37.102,3646.2
37.128,3789.8
37.154,3766.5
37.18,3657.2
37.206,3688.8
37.232,3874.9
37.258,3845.7
37.284,3840.6
37.31,3692.1
37.336,3788.1
37.362,3657.3
37.388,3835.5
37.414,3736.6
37.44,3721.7
37.466,3701.0
37.492,3701.0
37.518,3663.6
37.544,3601.6
37.57,3670.4
37.596,3705.5
37.622,3639.9
37.648,3678.1
37.674,3711.5
37.7,3738.7
37.726,3728.3
37.752,3824.6
37.778,3833.3
37.804,3962.5
37.83,3854.7
37.856,3878.6
37.882,3907.1
37.908,3788.2
37.934,3793.7
37.96,3760.0
37.986,3781.6
38.012,3764.3
38.038,3765.1
38.064,3788.7
38.09,3749.8
38.116,3686.9
38.142,3601.6
38.168,3649.4
38.194,3656.8
38.22,3616.3
38.246,3545.1
38.272,3531.4
38.298,3536.7
38.324,3548.5
38.35,3564.0
38.376,3521.7
38.402,3577.2
38.428,3566.8
38.454,3608.7
38.48,3644.0
38.506,3665.1
38.532,3643.8
38.558,3730.8
38.584,3794.4
38.61,3736.5
38.636,3674.2
38.662,3687.0
38.688,3657.5
38.714,3638.1
38.74,3673.3
38.766,3732.3
38.792,3779.5
38.818,3836.1
38.844,3897.5
38.87,3951.3
38.896,3985.0
38.922,4026.5
38.948,4118.4
38.974,4112.6
39,4130.4
39.026,4079.1
39.052,3930.1
39.078,3889.2
39.104,3863.0
39.13,3839.3
39.156,3801.0
39.182,3733.6
39.208,3691.3
39.234,3600.8
39.26,3548.8
39.286,3490.4
39.312,3511.8
39.338,3568.0
39.364,3497.7
39.39,3450.8
39.416,3478.4
39.442,3419.3
39.468,3468.5
39.494,3429.3
39.52,3484.4
39.546,3475.5
39.572,3428.6
39.598,3380.5
39.624,3342.8
39.65,3550.0
39.676,3648.5
39.702,3628.9
39.728,3774.4
39.754,3816.0
39.78,3893.4
39.806,4019.0
39.832,3992.4
39.858,3834.5
39.884,3907.6
39.91,3885.0
39.936,3789.0
39.962,3709.4